utc_s (s),utc_ms (ms)_x,file_path,filename,utc_ms (ms)_y,accel_x (counts),accel_y (counts),accel_z (counts),calibrated_accel_x (g),calibrated_accel_y (g),calibrated_accel_z (g),calibrated_accel_x (m/s^2),calibrated_accel_y (m/s^2),calibrated_accel_z (m/s^2),position_lat (semicircles),position_long (semicircles),enhanced_altitude (m),enhanced_speed (m/s),heading (degrees),gyro_x (counts),gyro_y (counts),gyro_z (counts),calibrated_gyro_x (deg/s),calibrated_gyro_y (deg/s),calibrated_gyro_z (deg/s),mag_x (counts),mag_y (counts),mag_z (counts),velocity (m/s)1,velocity (m/s)2,velocity (m/s)3,tsm1_original,tsm1_k2,tsm1_k3,tsm1_k4
964868685,704,2020-07-28/964868685s704ms.jpg,964868685s704ms.jpg,642,31316,33054,34704,-0.14013672,-0.93359375,0.72314453,-1.374271765188,-9.1554271484375,7.0916253051245,430511054.0,-1036451594,-89.80000000000003,2.24,60.25,33235,33313,33058,-33.048782,-19.878048,-28.90244,32717,32449,31346,1.94,1.11,-0.27,3.0,1.0,2.0,3.0
964868685,704,2020-07-28/964868685s704ms.jpg,964868685s704ms.jpg,733,31662,33181,34135,-0.20214844,-0.6557616999999999,0.5541991999999999,-1.982398999126,-6.430825475304999,5.43483758468,430511353.0,-1036451197,-90.0,2.38,58.21,32829,32877,32736,-6.4634147,-0.24390244,-4.1463413000000005,32713,32447,31346,2.02,1.25,-0.27,3.0,1.0,2.0,3.0
964868685,704,2020-07-28/964868685s704ms.jpg,964868685s704ms.jpg,622,23651,33707,34660,-0.45898438,-0.9121094,4.4658203,-4.501099170127,-8.944737647510001,43.794736644995005,430511014.0,-1036451661,-89.80000000000003,2.2230000000000003,60.03,32949,32589,33272,11.097561,-32.926829999999995,-11.463414,32719,32463,31347,1.92,1.11,-0.27,3.0,1.0,2.0,3.0
964868685,704,2020-07-28/964868685s704ms.jpg,964868685s704ms.jpg,834,29451,32773,32104,-0.0029296875,0.3359375,1.6337891000000002,-0.028730419921875,3.294421484375,16.021997877515,430511615.0,-1036450680,-90.2,2.6010000000000004,64.25,32373,33256,32556,-29.573172,10.731708,23.658537,32732,32471,31327,2.34,1.13,-0.27,3.0,1.0,2.0,3.0
964868685,704,2020-07-28/964868685s704ms.jpg,964868685s704ms.jpg,824,30749,33381,32725,-0.2998047,0.032714844,1.0,-2.9400797612550003,0.3208230249125999,9.80665,430511603.0,-1036450717,-90.2,2.611,63.85,32490,33235,32398,-28.292683,20.365854,16.524391,32727,32461,31333,2.34,1.15,-0.27,3.0,1.0,2.0,3.0
964868685,704,2020-07-28/964868685s704ms.jpg,964868685s704ms.jpg,803,33524,32964,32835,-0.096191406,-0.020996094,-0.35498047,-0.9433154516498998,-0.2059013452251,-3.4811692261255,430511581.0,-1036450801,-90.2,2.612,62.29,32607,33473,32588,-42.80488,8.780488,9.390244,32722,32450,31336,2.31,1.21,-0.27,3.0,1.0,2.0,3.0
964868685,704,2020-07-28/964868685s704ms.jpg,964868685s704ms.jpg,482,29976,33468,33308,-0.34228516,-0.25195312,1.3774414,-3.3566707643139995,-2.4708160642479995,13.508085705309998,430510761.0,-1036452122,-89.39999999999998,2.089,53.39,31931,32691,32723,4.878049,0.5487805,50.609756,32726,32444,31338,1.67,1.24,-0.26,3.0,1.0,2.0,3.0
964868685,704,2020-07-28/964868685s704ms.jpg,964868685s704ms.jpg,189,29264,32556,32892,0.103027344,-0.048828125,1.7250976999999998,1.0103531030375998,-0.47884033203125,16.917429359705,430509757.0,-1036453264,-88.60000000000002,1.958,73.11,32016,32759,32154,0.73170733,35.243904,45.42683,32724,32510,31328,1.87,0.56,-0.26,3.0,1.0,2.0,3.0
964868685,704,2020-07-28/964868685s704ms.jpg,964868685s704ms.jpg,179,29717,32725,32928,0.020507812,-0.06640625,1.5039062,0.2011129345497999,-0.6512228515624999,14.748281736229998,430509740.0,-1036453294,-88.60000000000002,1.963,73.81,32133,32703,32103,4.1463413000000005,38.353657,38.292683,32719,32494,31333,1.88,0.54,-0.26,3.0,1.0,2.0,3.0
964868685,704,2020-07-28/964868685s704ms.jpg,964868685s704ms.jpg,149,30829,33021,33614,-0.12402344,-0.4013672,0.9609375,-1.216254467876,-3.93606765188,9.423577734375,430509696.0,-1036453393,-88.60000000000002,1.95,74.86,32622,32764,32134,0.42682928,36.463413,8.475610000000001,32714,32490,31334,1.88,0.5,-0.26,3.0,1.0,2.0,3.0
964868685,704,2020-07-28/964868685s704ms.jpg,964868685s704ms.jpg,78,30762,33382,34085,-0.30029297,-0.63134766,0.99365234,-2.9448680542505,-6.191405529939,9.744400720061,430509576.0,-1036453625,-88.39999999999998,1.808,76.56,33621,32593,32458,10.853659,16.707317,-52.439026,32708,32497,31335,1.75,0.42,-0.26,3.0,1.0,2.0,3.0
964868685,704,2020-07-28/964868685s704ms.jpg,964868685s704ms.jpg,27,30161,32733,33799,0.016601562,-0.49169922,1.2871093999999998,0.1628057079873,-4.8219221558130005,12.62223139751,430509518.0,-1036453769,-88.19999999999997,1.809,76.45,33643,32583,32911,11.463414,-10.914634,-53.780487,32719,32534,31327,1.75,0.42,-0.26,3.0,1.0,2.0,3.0
964868685,704,2020-07-28/964868685s704ms.jpg,964868685s704ms.jpg,17,30560,33033,33500,-0.12988281,-0.34570312,1.0922851999999998,-1.2737152586864997,-3.3901895017479995,10.71165865658,430509508.0,-1036453797,-88.19999999999997,1.805,76.1,33490,32535,32900,14.390244,-10.243902,-44.451218,32715,32520,31332,1.75,0.43,-0.26,3.0,1.0,2.0,3.0
964868685,704,2020-07-28/964868685s704ms.jpg,964868685s704ms.jpg,492,30525,33387,33751,-0.30273438,-0.46826172,1.109375,-2.968810107627,-4.592078796438,10.87925234375,430510779.0,-1036452094,-89.39999999999998,2.08,53.43,31953,32621,32773,9.146341,-2.5,49.26829,32721,32433,31344,1.67,1.23,-0.26,3.0,1.0,2.0,3.0
964868685,704,2020-07-28/964868685s704ms.jpg,964868685s704ms.jpg,392,32286,33319,33358,-0.26953125,-0.2763672,0.24951172,-2.6431986328125,-2.71023640188,2.446874108938,430510492.0,-1036452426,-89.0,2.001,57.87,32240,32779,32746,-0.4878049,-0.85365856,31.768293,32727,32469,31336,1.69,1.06,-0.26,3.0,1.0,2.0,3.0
964868685,704,2020-07-28/964868685s704ms.jpg,964868685s704ms.jpg,382,34021,33182,33984,-0.20263672,-0.58203125,-0.59765625,-1.987187390188,-5.7077767578125,-5.8610056640625,430510435.0,-1036452479,-89.0,1.991,58.86,32193,32718,32716,3.2317073,0.9756098,34.634148,32722,32452,31340,1.7,1.02,-0.26,3.0,1.0,2.0,3.0
964868685,704,2020-07-28/964868685s704ms.jpg,964868685s704ms.jpg,330,30855,32929,32683,-0.07910156,0.0532226559999999,0.9482421999999998,-0.7757213133740001,0.5219359594624,9.29907937063,430510118.0,-1036452769,-89.0,1.935,65.46,32206,32963,32711,-11.707317,1.2804878,33.841465,32723,32457,31336,1.76,0.8,-0.26,3.0,1.0,2.0,3.0
964868685,704,2020-07-28/964868685s704ms.jpg,964868685s704ms.jpg,310,30890,32978,32823,-0.103027344,-0.015136719,0.93115234,-1.0103531030375998,-0.1484405053813499,9.131485095061,430510076.0,-1036452830,-89.0,1.925,67.29,32226,32991,32712,-13.414634,1.2195122,32.621952,32721,32457,31340,1.77,0.74,-0.26,3.0,1.0,2.0,3.0
964868685,704,2020-07-28/964868685s704ms.jpg,964868685s704ms.jpg,290,32176,33105,32996,-0.16503906,-0.099609375,0.30322266,-1.6184802977489998,-0.97683427734375,2.9735984986889994,430510043.0,-1036452892,-88.80000000000003,1.926,67.4,32030,32937,32639,-10.121951,5.6707315000000005,44.573170000000005,32721,32454,31341,1.77,0.74,-0.26,3.0,1.0,2.0,3.0
964868685,704,2020-07-28/964868685s704ms.jpg,964868685s704ms.jpg,280,31855,33244,33189,-0.23291016,-0.19384766,0.45996094,-2.284068420564,-1.900996154939,4.510675952251,430510020.0,-1036452919,-88.80000000000003,1.934,67.71,31899,32932,32550,-9.817073,11.097561,52.560974,32723,32462,31336,1.78,0.73,-0.26,3.0,1.0,2.0,3.0
964868643,729,2020-07-28/964868643s729ms.jpg,964868643s729ms.jpg,531,31088,32995,33606,-0.111328125,-0.39746094,0.83447266,-1.0917559570312498,-3.897760327251,8.183381311188999,430439128.0,-1036519854,-58.80000000000001,4.498,351.18,32719,32673,32740,5.97561,-0.4878049,2.5609756,32706,32479,31344,-0.68,4.44,-0.85,1.0,0.0,0.0,1.0
964868643,729,2020-07-28/964868643s729ms.jpg,964868643s729ms.jpg,732,30750,32608,33019,0.07763672,-0.110839844,0.9995117,0.761356140188,-1.0869675561626,9.801861412805,430439330.0,-1036520876,-63.0,4.524,345.69,32580,32591,32829,10.97561,-5.914634,11.036586,32711,32498,31343,-1.11,4.38,-0.95,1.0,0.0,0.0,1.0
964868643,729,2020-07-28/964868643s729ms.jpg,964868643s729ms.jpg,722,31265,32435,33316,0.16210938,-0.25585938,0.7480469,1.589749951377,-2.509123388877,7.335834131884999,430439343.0,-1036520814,-62.80000000000001,4.537,346.1,32575,32514,32777,15.670732,-2.7439024,11.341463,32713,32510,31343,-1.08,4.4,-0.94,1.0,0.0,0.0,1.0
964868643,729,2020-07-28/964868643s729ms.jpg,964868643s729ms.jpg,561,31185,32849,33089,-0.040039062,-0.14501953,0.7871094,-0.3926490673623,-1.4221557738745,7.71890639751,430439128.0,-1036520026,-59.399999999999984,4.446000000000001,349.42,32792,32651,32766,7.3170733,-2.0731707,-1.8902439,32711,32499,31339,-0.81,4.37,-0.86,1.0,0.0,0.0,1.0
964868643,729,2020-07-28/964868643s729ms.jpg,964868643s729ms.jpg,994,32072,32776,34022,-0.0043945312,-0.60058594,0.3540039,-0.04309562939248,-5.889736108500999,3.4715923459349995,430440399.0,-1036522134,-57.0,4.498,348.13,32362,32843,32777,-4.390244,-2.7439024,24.329268,32701,32467,31354,-0.92,4.4,-0.39,1.0,0.0,0.0,1.0
964868643,729,2020-07-28/964868643s729ms.jpg,964868643s729ms.jpg,914,31669,32650,33247,0.0571289059999999,-0.22216797,0.55078125,0.5602431860249,-2.1787235230005,5.4013189453125,430440099.0,-1036521872,-56.80000000000001,4.757,343.92,32609,32684,32801,5.304878,-4.207317,9.268292,32702,32474,31353,-1.31,4.57,-0.41,1.0,0.0,0.0,1.0
964868643,729,2020-07-28/964868643s729ms.jpg,964868643s729ms.jpg,844,29545,32921,32114,-0.07519531,0.3310547,1.5878906000000002,-0.7374140868115,3.2465375737549995,15.571887352489998,430439863.0,-1036521521,-57.600000000000016,4.799,343.49,32520,32911,32826,-8.536586,-5.731707,14.695122,32704,32477,31353,-1.36,4.6,-0.51,1.0,0.0,0.0,1.0
964868643,729,2020-07-28/964868643s729ms.jpg,964868643s729ms.jpg,511,30808,32861,32927,-0.045898438,-0.06591797,0.9711914,-0.4501099170127,-0.6464344605005,9.52413414281,430439125.0,-1036519754,-58.399999999999984,4.534,352.25,32752,32683,32825,5.365854,-5.6707315000000005,0.5487805,32708,32487,31344,-0.61,4.49,-0.84,1.0,0.0,0.0,1.0
964868643,729,2020-07-28/964868643s729ms.jpg,964868643s729ms.jpg,208,30361,32763,33383,0.001953125,-0.28857422,1.1894531000000002,0.01915361328125,-2.829946374563,11.664550243115,430438853.0,-1036518136,-51.80000000000001,4.918,354.07,32568,32853,32911,-5.0,-10.914634,11.768292,32720,32496,31332,-0.5,4.89,-0.63,1.0,0.0,0.0,1.0
964868643,729,2020-07-28/964868643s729ms.jpg,964868643s729ms.jpg,93,30370,32735,32315,0.015625,0.23291016,1.1850586,0.15322890625,2.284068420564,11.62145491969,430438342.0,-1036517681,-50.19999999999999,5.038,352.73,32520,32794,32806,-1.402439,-4.512194999999999,14.695122,32725,32500,31328,-0.63,4.99,-0.58,1.0,0.0,0.0,1.0
964868643,729,2020-07-28/964868643s729ms.jpg,964868643s729ms.jpg,83,31139,32646,32923,0.05908203,-0.063964844,0.8095703000000001,0.5793967894995,-0.6272808374126,7.939172582494999,430438303.0,-1036517648,-50.19999999999999,5.066,352.69,32569,32773,32832,-0.12195122,-6.097561,11.707317,32727,32511,31327,-0.64,5.02,-0.58,1.0,0.0,0.0,1.0
964868643,729,2020-07-28/964868643s729ms.jpg,964868643s729ms.jpg,73,31146,32667,32936,0.048828125,-0.0703125,0.80615234,0.47884033203125,-0.689530078125,7.905653845061001,430438286.0,-1036517601,-50.0,5.095,352.74,32609,32755,32877,0.9756098,-8.841463000000001,9.268292,32724,32496,31330,-0.64,5.05,-0.58,1.0,0.0,0.0,1.0
964868643,729,2020-07-28/964868643s729ms.jpg,964868643s729ms.jpg,501,30456,32813,32554,-0.022460938,0.11621094,1.1430664,-0.2202665576377,1.139640014751,11.20965211156,430439172.0,-1036519663,-58.0,4.548,352.8,32741,32666,32810,6.402439,-4.756098000000001,1.2195122,32713,32503,31338,-0.56,4.51,-0.83,1.0,0.0,0.0,1.0
964868643,729,2020-07-28/964868643s729ms.jpg,964868643s729ms.jpg,258,30240,33257,32859,-0.23925781,-0.032714844,1.2485351999999998,-2.3463176024365,-0.3208230249125999,12.24394771908,430439048.0,-1036518334,-53.0,4.996,355.27,32631,32722,32909,2.987805,-10.792683,7.9268293,32723,32507,31329,-0.41,4.97,-0.68,1.0,0.0,0.0,1.0
964868643,729,2020-07-28/964868643s729ms.jpg,964868643s729ms.jpg,461,30233,32858,32656,-0.044433594,0.06640625,1.2519531000000002,-0.4357447046001,0.6512228515624999,12.277465868114998,430439129.0,-1036519435,-57.399999999999984,4.566,354.07,32743,32673,32795,5.97561,-3.8414633,1.097561,32707,32475,31342,-0.47,4.54,-0.81,1.0,0.0,0.0,1.0
964868643,729,2020-07-28/964868643s729ms.jpg,964868643s729ms.jpg,431,30247,33104,33326,-0.16455078,-0.2607422,1.2451172,-1.613691906687,-2.55700749563,12.21042858938,430439084.0,-1036519241,-56.80000000000001,4.595,355.45,32730,32807,32860,-2.195122,-7.804877999999999,1.8902439,32714,32496,31337,-0.36,4.58,-0.8,1.0,0.0,0.0,1.0
964868643,729,2020-07-28/964868643s729ms.jpg,964868643s729ms.jpg,328,30543,33190,33205,-0.20654297,-0.20166016,1.1005858999999998,-2.0254946167505,-1.977610608064,10.793060716235,430439064.0,-1036518706,-54.80000000000001,4.851,356.21,32647,32653,32856,7.1951220000000005,-7.560975599999999,6.9512196,32712,32479,31336,-0.32,4.84,-0.74,1.0,0.0,0.0,1.0
964868643,729,2020-07-28/964868643s729ms.jpg,964868643s729ms.jpg,298,30289,33068,33230,-0.14697266,-0.21386719,1.2246093999999998,-1.441309436189,-2.0973206788135,12.009315772510002,430439028.0,-1036518568,-54.19999999999999,4.924,355.88,32673,32773,32959,-0.12195122,-13.841463,5.365854,32718,32500,31335,-0.35,4.91,-0.72,1.0,0.0,0.0,1.0
964868643,729,2020-07-28/964868643s729ms.jpg,964868643s729ms.jpg,268,30090,33125,32581,-0.17480469,0.103027344,1.3217773000000002,-1.7142484131885,1.0103531030375998,12.962207359045,430439063.0,-1036518379,-53.399999999999984,4.985,355.72,32675,32721,32987,3.0487804,-15.54878,5.243901999999999,32721,32498,31332,-0.37,4.97,-0.69,1.0,0.0,0.0,1.0
964868620,706,2020-07-28/964868620s706ms.jpg,964868620s706ms.jpg,664,31393,33007,33667,-0.1171875,-0.4272460999999999,0.6855469,-1.149216796875,-4.189852966565,6.722918506885,430419321.0,-1036536500,-41.60000000000002,1.817,62.83,32733,32727,32735,2.682927,-0.18292683,1.7073171000000005,32734,32582,31244,1.61,0.82,-0.07,1.0,0.0,0.0,0.0
964868620,706,2020-07-28/964868620s706ms.jpg,964868620s706ms.jpg,674,31195,32869,33349,-0.049804688,-0.27197266,0.78222656,-0.4884171435752,-2.667140686189,7.671022094624,430419322.0,-1036536477,-41.80000000000001,1.797,61.99,32761,32771,32673,0.0,3.597561,0.0,32731,32567,31247,1.58,0.84,-0.07,1.0,0.0,0.0,0.0
964868620,706,2020-07-28/964868620s706ms.jpg,964868620s706ms.jpg,603,30212,33765,32790,-0.4873047,0.0009765625,1.262207,-4.778826636254999,0.009576806640625,12.37802227655,430419286.0,-1036536652,-41.60000000000002,1.927,63.78,32712,32898,32723,-7.743902,0.5487805,2.987805,32730,32565,31248,1.72,0.85,-0.06,1.0,0.0,0.0,0.0
964868620,706,2020-07-28/964868620s706ms.jpg,964868620s706ms.jpg,531,31241,32931,33919,-0.080078125,-0.55029297,0.7597656,-0.7852981445312499,-5.3965305542505,7.45075532124,430419227.0,-1036536806,-41.60000000000002,2.112,66.22,32634,32852,32632,-4.939024400000001,6.097561,7.743902,32729,32572,31247,1.93,0.85,-0.06,1.0,0.0,0.0,0.0
964868620,706,2020-07-28/964868620s706ms.jpg,964868620s706ms.jpg,944,32327,32812,33549,-0.021972656,-0.3696289,0.22949219,-0.2154781469624,-3.624821252185,2.2505495850635,430419509.0,-1036536088,-42.19999999999999,1.337,48.22,32437,32678,32651,5.6707315000000005,4.939024400000001,19.756098,32732,32551,31252,0.99,0.89,-0.09,1.0,0.0,0.0,0.0
964868620,706,2020-07-28/964868620s706ms.jpg,964868620s706ms.jpg,934,32151,32779,33644,-0.005859375,-0.41601562,0.3154297,-0.05746083984375,-4.079719579872998,3.093308667505,430419496.0,-1036536104,-42.19999999999999,1.325,48.12,32427,32704,32580,4.0853660000000005,9.268292,20.365854,32735,32567,31249,0.98,0.88,-0.09,1.0,0.0,0.0,0.0
964868620,706,2020-07-28/964868620s706ms.jpg,964868620s706ms.jpg,824,29922,33133,33066,-0.17871094,-0.13378906,1.4038086,-1.752555639751,-1.312022485249,13.766659607189998,430419393.0,-1036536236,-42.0,1.429,49.78,32716,32839,32644,-4.1463413000000005,5.365854,2.7439024,32727,32553,31252,1.09,0.92,-0.08,1.0,0.0,0.0,0.0
964868620,706,2020-07-28/964868620s706ms.jpg,964868620s706ms.jpg,774,30533,33315,33198,-0.26757812,-0.19824219,1.1054688,-2.624044970498,-1.9440917725635,10.840945607519998,430419343.0,-1036536289,-42.0,1.538,55.83,32870,32814,32677,-2.621951,3.3536584,-6.6463413000000005,32729,32559,31249,1.27,0.86,-0.08,1.0,0.0,0.0,0.0
964868620,706,2020-07-28/964868620s706ms.jpg,964868620s706ms.jpg,984,29936,32815,32712,-0.0234375,0.0390625,1.3969726999999998,-0.229843359375,0.383072265625,13.699622328455,430419550.0,-1036536018,-42.39999999999998,1.43,50.33,32523,32950,32790,-10.914634,-3.5365853,14.512196,32731,32552,31255,1.1,0.91,-0.1,1.0,0.0,0.0,0.0
964868620,706,2020-07-28/964868620s706ms.jpg,964868620s706ms.jpg,220,31064,32939,33464,-0.083984375,-0.328125,0.8461914,-0.82360537109375,-3.21780703125,8.29830289281,430419014.0,-1036537559,-41.19999999999999,1.787,77.47,32845,32880,32858,-6.6463413000000005,-7.6829267,-5.121951,32722,32557,31256,1.74,0.38,-0.05,1.0,0.0,0.0,0.0
964868620,706,2020-07-28/964868620s706ms.jpg,964868620s706ms.jpg,168,31163,32840,33673,-0.03564453,-0.43017578,0.79785156,-0.3495534301245,-4.218583312937,7.824251000874,430418995.0,-1036537738,-41.0,1.7480000000000002,80.45,32871,32806,32789,-2.1341465,-3.4756098,-6.707317,32720,32554,31260,1.72,0.29,-0.04,1.0,0.0,0.0,0.0
964868620,706,2020-07-28/964868620s706ms.jpg,964868620s706ms.jpg,158,31044,33257,33029,-0.23925781,-0.115722656,0.85595703,-2.3463176024365,-1.1348515844624,8.3940710082495,430418993.0,-1036537766,-41.0,1.723,80.7,32816,32717,32932,3.292683,-12.195122,-3.3536584,32721,32557,31262,1.7,0.27,-0.04,1.0,0.0,0.0,0.0
964868620,706,2020-07-28/964868620s706ms.jpg,964868620s706ms.jpg,471,30759,32954,32444,-0.091308594,0.16992188,0.9951171999999998,-0.8954314233501001,1.666364404502,9.758766089380002,430419150.0,-1036536946,-41.39999999999998,2.193,71.65,32830,32751,32693,1.2195122,2.3780490000000003,-4.207317,32729,32578,31247,2.08,0.69,-0.05,1.0,0.0,0.0,0.0
964868620,706,2020-07-28/964868620s706ms.jpg,964868620s706ms.jpg,461,30956,33124,33081,-0.1743164,-0.14111328,0.8989258,-1.70945992406,-1.383848547312,8.81545069657,430419131.0,-1036536977,-41.39999999999998,2.101,72.61,32840,32740,32670,1.8902439,3.7804878,-4.8170733,32730,32583,31247,2.0,0.62,-0.05,1.0,0.0,0.0,0.0
964868620,706,2020-07-28/964868620s706ms.jpg,964868620s706ms.jpg,421,30795,33077,32993,-0.15136719,-0.09814453,0.97753906,-1.4844050538135,-0.9624690551245,9.586383422749,430419077.0,-1036537087,-41.39999999999998,1.941,74.6,32852,32743,32722,1.7073171000000005,0.6097561,-5.5487804,32731,32591,31246,1.87,0.51,-0.05,1.0,0.0,0.0,0.0
964868620,706,2020-07-28/964868620s706ms.jpg,964868620s706ms.jpg,391,30861,33066,33440,-0.1459961,-0.31640625,0.9453125,-1.4317326540649995,-3.1028853515625,9.270348828125,430419062.0,-1036537155,-41.39999999999998,1.964,75.03,32838,32764,32737,0.42682928,-0.30487806,-4.6951220000000005,32723,32565,31253,1.89,0.5,-0.05,1.0,0.0,0.0,0.0
964868620,706,2020-07-28/964868620s706ms.jpg,964868620s706ms.jpg,330,30728,32835,32812,-0.033203125,-0.009765625,1.0102539,-0.32561142578125,-0.09576806640625,9.907206408434998,430419033.0,-1036537324,-41.19999999999999,1.75,74.49,32979,32819,32844,-2.9268293,-6.8292685,-13.292682999999998,32721,32555,31254,1.68,0.46,-0.05,1.0,0.0,0.0,0.0
964868620,706,2020-07-28/964868620s706ms.jpg,964868620s706ms.jpg,320,30637,33207,32909,-0.21484375,-0.0571289059999999,1.0546875,-2.1068974609375,-0.5602431860249,10.342951171875,430419035.0,-1036537350,-41.19999999999999,1.759,74.56,32971,32830,32779,-3.597561,-2.8658535,-12.804878,32723,32564,31254,1.69,0.46,-0.05,1.0,0.0,0.0,0.0
964868620,706,2020-07-28/964868620s706ms.jpg,964868620s706ms.jpg,290,29886,32654,32479,0.05517578,0.15283203,1.4213867,0.5410895629370001,1.4987702269995,13.939041881555,430419023.0,-1036537394,-41.19999999999999,1.751,76.13,32894,32812,32815,-2.5,-5.060975599999999,-8.109755999999999,32732,32597,31247,1.7,0.41,-0.05,1.0,0.0,0.0,0.0
964868620,706,2020-07-28/964868620s706ms.jpg,964868620s706ms.jpg,280,30543,32640,32860,0.06201172,-0.033203125,1.1005858999999998,0.608127233938,-0.32561142578125,10.793060716235,430419020.0,-1036537419,-41.19999999999999,1.734,76.18,32911,32797,32754,-1.5853659,-1.3414634,-9.146341,32731,32586,31247,1.68,0.41,-0.05,1.0,0.0,0.0,0.0
964868688,707,2020-07-28/964868688s707ms.jpg,964868688s707ms.jpg,597,31450,34576,33516,-0.8833008,-0.35351562,0.65771484,-8.66222179032,-3.4668039548729994,6.449979235686,430515553.0,-1036442704,-98.39999999999998,2.111,48.29,32724,32533,32720,14.512196,0.73170733,2.2560976000000004,32710,32484,31342,1.57,1.4,-0.3,3.0,1.0,2.0,3.0
964868688,707,2020-07-28/964868688s707ms.jpg,964868688s707ms.jpg,535,32782,33145,33111,-0.18457031,-0.15576172,0.0073242188,-1.8100164305615,-1.527500671438,0.07182605029502,430515386.0,-1036442875,-98.2,1.947,49.43,32317,32335,32444,26.585365000000003,17.560976,27.073172,32713,32507,31336,1.47,1.26,-0.3,3.0,1.0,2.0,3.0
964868688,707,2020-07-28/964868688s707ms.jpg,964868688s707ms.jpg,525,33110,32460,34293,0.14990234,-0.73291016,-0.15283203,1.470039782561,-7.187393420564,-1.4987702269995,430515366.0,-1036442895,-98.2,1.948,50.11,32679,32172,32651,36.52439,4.939024400000001,5.0,32714,32519,31335,1.49,1.24,-0.3,3.0,1.0,2.0,3.0
964868688,707,2020-07-28/964868688s707ms.jpg,964868688s707ms.jpg,515,31480,32293,34876,0.23144531,-1.0175781,0.6430664,2.2697031493115,-9.979032274364998,6.30632711156,430515346.0,-1036442915,-98.2,1.952,50.93,33088,32046,32780,44.207317,-2.9268293,-19.939024,32709,32507,31336,1.51,1.23,-0.3,3.0,1.0,2.0,3.0
964868688,707,2020-07-28/964868688s707ms.jpg,964868688s707ms.jpg,757,26297,33073,30953,-0.14941406,0.8979492,3.1738281,-1.4652513914989995,8.805873522179999,31.124621336865,430516030.0,-1036442120,-99.0,2.399,45.57,31644,32956,32780,-11.280488,-2.9268293,68.10976,32725,32480,31334,1.71,1.67,-0.31,3.0,1.0,2.0,3.0
964868688,707,2020-07-28/964868688s707ms.jpg,964868688s707ms.jpg,992,29346,33219,33457,-0.22070312,-0.32470703,1.6850586,-2.164358251748,-3.1842881957495,16.524779919689998,430515071.0,-1036441871,-94.0,1.928,62.16,33021,33106,32874,-20.426828,-8.658536999999999,-15.853659,32725,32464,31334,1.7,0.9,-0.31,3.0,1.0,2.0,3.0
964868688,707,2020-07-28/964868688s707ms.jpg,964868688s707ms.jpg,982,27262,33442,33456,-0.32958984,-0.32421875,2.7026367,-3.232172204436,-3.1794998046875,26.503812194055,430515219.0,-1036441851,-94.39999999999998,1.961,59.32,32961,32946,32804,-10.670732,-4.390244,-12.195122,32726,32471,31332,1.68,1.0,-0.31,3.0,1.0,2.0,3.0
964868688,707,2020-07-28/964868688s707ms.jpg,964868688s707ms.jpg,747,28500,33229,30733,-0.22558594,1.0053711,2.0981445,-2.2122423585010003,9.859322497815,20.575768760925,430516003.0,-1036442163,-98.8,2.405,45.39,31602,33048,32747,-16.890244,-0.91463417,70.67073,32721,32458,31338,1.71,1.68,-0.31,3.0,1.0,2.0,3.0
964868688,707,2020-07-28/964868688s707ms.jpg,964868688s707ms.jpg,817,34247,32858,33328,-0.044433594,-0.26171875,-0.7080078000000001,-0.4357447046001,-2.5665841796875,-6.943184691869999,430516193.0,-1036441877,-99.0,2.369,46.26,32198,32510,32961,15.914634,-13.963414000000002,34.32927,32716,32447,31346,1.71,1.63,-0.31,3.0,1.0,2.0,3.0
964868688,707,2020-07-28/964868688s707ms.jpg,964868688s707ms.jpg,777,31419,32053,34298,0.3486328,-0.73535156,0.67285156,3.4189198481200003,-7.211335375873999,6.598419750873999,430516079.0,-1036442022,-99.0,2.394,46.06,31796,32732,32851,2.3780490000000003,-7.256098,58.841465,32720,32450,31340,1.72,1.66,-0.31,3.0,1.0,2.0,3.0
964868688,707,2020-07-28/964868688s707ms.jpg,964868688s707ms.jpg,767,27628,32417,32612,0.17089844,0.087890625,2.5239258,1.675941186626,0.86191259765625,24.75125694657,430516054.0,-1036442069,-99.0,2.397,46.21,31705,32878,32866,-6.52439,-8.170732000000001,64.39024,32724,32469,31335,1.73,1.65,-0.31,3.0,1.0,2.0,3.0
964868688,707,2020-07-28/964868688s707ms.jpg,964868688s707ms.jpg,143,35034,32473,34846,0.14355469,-1.0029297,-1.0922851999999998,1.4077906006885,-9.835380542504998,-10.71165865658,430514678.0,-1036444034,-97.2,2.121,50.52,31760,32747,32311,1.4634147,25.670732,61.036587,32710,32514,31330,1.63,1.34,-0.31,3.0,1.0,2.0,3.0
964868688,707,2020-07-28/964868688s707ms.jpg,964868688s707ms.jpg,133,35583,31886,37003,0.43017578,-2.0561523,-1.3603516000000002,4.218583312937,-20.163965952795,-13.34049201814,430514670.0,-1036444076,-97.0,2.119,48.86,31939,32447,32266,19.756098,28.414635,50.121952,32713,32534,31326,1.59,1.39,-0.31,3.0,1.0,2.0,3.0
964868688,707,2020-07-28/964868688s707ms.jpg,964868688s707ms.jpg,62,28157,33210,33849,-0.2163086,-0.5161133,2.265625,-2.12126273219,-5.061342493444998,22.21819140625,430514651.0,-1036444255,-96.8,2.266,41.61,32526,32305,32013,28.414635,43.841465,14.329268,32708,32556,31315,1.5,1.69,-0.31,3.0,1.0,2.0,3.0
964868688,707,2020-07-28/964868688s707ms.jpg,964868688s707ms.jpg,223,33273,32220,32950,0.26708984,-0.07714844,-0.23242188,2.619256579436,-0.7565677491259999,-2.279280029502,430514719.0,-1036443785,-97.2,2.14,57.54,30900,32514,32646,15.670732,5.243901999999999,113.47561,32713,32474,31342,1.8,1.14,-0.31,3.0,1.0,2.0,3.0
964868688,707,2020-07-28/964868688s707ms.jpg,964868688s707ms.jpg,485,27501,32855,34720,-0.04296875,-0.94140625,2.5859375,-0.4213794921875,-9.2320416015625,25.359383984375,430515291.0,-1036442993,-98.2,1.97,53.73,33153,32745,32704,1.5853659,1.7073171000000005,-23.90244,32711,32501,31334,1.58,1.16,-0.31,3.0,1.0,2.0,3.0
964868688,707,2020-07-28/964868688s707ms.jpg,964868688s707ms.jpg,244,31551,33460,33619,-0.3383789,-0.4038085999999999,0.60839844,-3.318363439685,-3.96000960719,5.966350561625999,430514760.0,-1036443709,-97.39999999999998,2.151,58.52,31223,32740,32750,1.8902439,-1.097561,93.78049,32715,32465,31340,1.83,1.12,-0.31,3.0,1.0,2.0,3.0
964868688,707,2020-07-28/964868688s707ms.jpg,964868688s707ms.jpg,233,32755,32740,32268,0.013183594,0.25585938,0.020507812,0.1292868921001,2.509123388877,0.2011129345497999,430514737.0,-1036443751,-97.39999999999998,2.139,57.89,31045,32604,32478,10.182927,15.487804,104.63415,32712,32462,31343,1.81,1.13,-0.31,3.0,1.0,2.0,3.0
964868688,707,2020-07-28/964868688s707ms.jpg,964868688s707ms.jpg,465,30341,33317,29178,-0.2685547,1.7646484,1.1992188,-2.633621948755,17.305289231859998,11.76031904502,430515262.0,-1036443059,-98.0,1.997,55.33,33274,33204,32527,-26.40244,12.5,-31.280487,32719,32526,31326,1.64,1.13,-0.31,3.0,1.0,2.0,3.0
964868688,707,2020-07-28/964868688s707ms.jpg,964868688s707ms.jpg,334,32599,32490,29341,0.1352539,1.6850586,0.09667969,1.326387658435,16.524779919689998,0.9481038819385,430514996.0,-1036443454,-97.60000000000002,2.141,54.85,32684,32938,33165,-10.182927,-26.40244,4.6951220000000005,32718,32483,31334,1.75,1.23,-0.3,3.0,1.0,2.0,3.0
964868683,702,2020-07-28/964868683s702ms.jpg,964868683s702ms.jpg,679,30233,32921,29995,-0.07519531,1.3657226999999998,1.2519531000000002,-0.7374140868115,13.393164515955,12.277465868114998,430506503.0,-1036455912,-85.19999999999997,2.0340000000000003,21.43,31685,33063,32511,-17.804878,13.47561,65.60976,32734,32397,31331,0.74,1.89,-0.23,3.0,1.0,2.0,3.0
964868683,702,2020-07-28/964868683s702ms.jpg,964868683s702ms.jpg,710,31615,33004,33939,-0.115722656,-0.5600586,0.57714844,-1.1348515844624,-5.492298669689999,5.6598927491260005,430506598.0,-1036455871,-85.39999999999998,2.052,24.04,31683,33172,32482,-24.451220000000003,15.243902,65.731705,32736,32397,31327,0.83,1.87,-0.23,3.0,1.0,2.0,3.0
964868683,702,2020-07-28/964868683s702ms.jpg,964868683s702ms.jpg,599,31036,32722,31961,0.021972656,0.40576172,0.8598633,0.2154781469624,3.979163171438,8.432378430944999,430506291.0,-1036456002,-85.0,1.989,17.87,32018,32893,32228,-7.439024400000001,30.731707,45.30488,32736,32445,31329,0.61,1.89,-0.22,3.0,1.0,2.0,3.0
964868683,702,2020-07-28/964868683s702ms.jpg,964868683s702ms.jpg,589,30649,32932,32114,-0.080566406,0.3310547,1.0488281000000002,-0.7900865453998999,3.2465375737549995,10.285490086864998,430506260.0,-1036456013,-85.0,1.984,17.39,32141,32907,32247,-8.292683,29.573172,37.80488,32735,32443,31331,0.59,1.89,-0.22,3.0,1.0,2.0,3.0
964868683,702,2020-07-28/964868683s702ms.jpg,964868683s702ms.jpg,569,30586,33229,32713,-0.22558594,0.03857422,1.0795898000000002,-2.2122423585010003,0.378283874563,10.587159312169998,430506202.0,-1036456028,-85.0,1.98,17.42,32394,32840,32336,-4.207317,24.146341,22.378048,32728,32420,31336,0.59,1.88,-0.22,3.0,1.0,2.0,3.0
964868683,702,2020-07-28/964868683s702ms.jpg,964868683s702ms.jpg,519,29931,33774,32091,-0.49169922,0.34228516,1.3994141000000002,-4.8219221558130005,3.3566707643139995,13.723564283765,430506062.0,-1036456070,-84.80000000000003,1.942,18.4,32563,32837,32417,-4.02439,19.207317,12.073171,32734,32458,31332,0.61,1.84,-0.22,3.0,1.0,2.0,3.0
964868683,702,2020-07-28/964868683s702ms.jpg,964868683s702ms.jpg,960,31399,32570,33252,0.096191406,-0.22460938,0.6826171999999999,0.9433154516498998,-2.202665576377,6.694187964380001,430507163.0,-1036455739,-85.80000000000003,1.7919999999999998,19.36,31859,32661,33188,6.707317,-27.804878,55.0,32737,32382,31321,0.59,1.69,-0.23,3.0,1.0,2.0,3.0
964868683,702,2020-07-28/964868683s702ms.jpg,964868683s702ms.jpg,930,31844,32969,30457,-0.09863281,1.1401367,0.46533203,-0.9672574461865,11.180921569055,4.5633483519995,430507111.0,-1036455748,-85.80000000000003,1.83,20.46,32192,32819,33293,-2.9268293,-34.207317,34.69512,32732,32357,31326,0.63,1.71,-0.23,3.0,1.0,2.0,3.0
964868683,702,2020-07-28/964868683s702ms.jpg,964868683s702ms.jpg,910,26690,33538,34455,-0.37646484,-0.8120116999999999,2.9819336,-3.691858923186,-7.963114537805001,29.242779138440003,430507064.0,-1036455764,-85.60000000000002,1.851,20.49,31931,32715,33521,3.4146342000000005,-48.109756,50.609756,32732,32362,31326,0.64,1.73,-0.23,3.0,1.0,2.0,3.0
964868683,702,2020-07-28/964868683s702ms.jpg,964868683s702ms.jpg,870,36119,31267,34621,0.7324219,-0.8930664,-1.6220703,7.182605225634999,-8.75798961156,-15.907075707495,430506972.0,-1036455779,-85.60000000000002,1.933,21.21,31591,32086,32743,41.76829,-0.6707316999999999,71.34146,32733,32363,31322,0.69,1.8,-0.23,3.0,1.0,2.0,3.0
964868683,702,2020-07-28/964868683s702ms.jpg,964868683s702ms.jpg,860,34088,31747,33359,0.49804688,-0.27685547,-0.6303711,4.884171435752,-2.7150246948755004,-6.181828747815,430506957.0,-1036455783,-85.60000000000002,1.955,21.55,31660,32096,32835,41.158535,-6.280488,67.13415,32741,32389,31316,0.71,1.81,-0.23,3.0,1.0,2.0,3.0
964868683,702,2020-07-28/964868683s702ms.jpg,964868683s702ms.jpg,509,30777,33329,32647,-0.27441406,0.07080078,0.9863281,-2.6910826414990003,0.6943184691869999,9.672574461865,430506029.0,-1036456076,-84.80000000000003,1.932,18.82,32660,32744,32423,1.6463414,18.841463,6.1585364,32728,32444,31335,0.62,1.82,-0.22,3.0,1.0,2.0,3.0
964868683,702,2020-07-28/964868683s702ms.jpg,964868683s702ms.jpg,86,32795,33078,33403,-0.15185547,-0.29833984,0.0009765625,-1.4891934448754998,-2.925714391936,0.009576806640625,430504865.0,-1036456660,-83.80000000000003,2.007,30.03,31725,33045,32286,-16.707317,27.195122,63.170730000000006,32724,32523,31317,1.0,1.73,-0.2,3.0,1.0,2.0,3.0
964868683,702,2020-07-28/964868683s702ms.jpg,964868683s702ms.jpg,44,30883,33303,33099,-0.26171875,-0.14990234,0.9345703000000002,-2.5665841796875,-1.470039782561,9.165003832495,430504639.0,-1036456825,-83.80000000000003,1.91,27.15,31661,33048,32141,-16.890244,36.036587,67.07316999999999,32715,32515,31319,0.87,1.69,-0.2,3.0,1.0,2.0,3.0
964868683,702,2020-07-28/964868683s702ms.jpg,964868683s702ms.jpg,227,30046,33561,33558,-0.3876953,-0.37402344,1.3432617,-3.801992113745,-3.667916967876,13.172897350305,430505348.0,-1036456330,-84.0,2.112,33.56,32767,32949,32504,-10.853659,13.902439,-0.36585367,32729,32506,31318,1.16,1.76,-0.21,3.0,1.0,2.0,3.0
964868683,702,2020-07-28/964868683s702ms.jpg,964868683s702ms.jpg,237,30497,33491,33414,-0.35351562,-0.30371094,1.1230468999999998,-3.4668039548729994,-2.9783868897509995,11.013327881885,430505368.0,-1036456315,-84.0,2.111,33.7,32743,32966,32520,-11.890244,12.926829,1.097561,32730,32499,31318,1.17,1.75,-0.21,3.0,1.0,2.0,3.0
964868683,702,2020-07-28/964868683s702ms.jpg,964868683s702ms.jpg,429,31361,33285,34081,-0.2529297,-0.62939453,0.7011719,-2.480393042505,-6.1722518676245,6.876147413135,430505815.0,-1036456133,-84.60000000000002,1.954,23.54,32237,32530,32562,14.695122,10.365853,31.951220000000003,32731,32462,31328,0.78,1.79,-0.22,3.0,1.0,2.0,3.0
964868683,702,2020-07-28/964868683s702ms.jpg,964868683s702ms.jpg,399,30492,32869,33256,-0.049804688,-0.2265625,1.1254883,-0.4884171435752,-2.221819140625,11.037269837195,430505732.0,-1036456165,-84.39999999999998,1.921,25.99,31796,32550,32515,13.47561,13.231708,58.841465,32727,32448,31334,0.84,1.72,-0.22,3.0,1.0,2.0,3.0
964868683,702,2020-07-28/964868683s702ms.jpg,964868683s702ms.jpg,267,30828,33788,32499,-0.49853516,0.1430664,0.9614258,-4.888959826813998,1.4030021115600002,9.42836632157,430505428.0,-1036456283,-84.19999999999997,2.063,32.59,32589,32909,32333,-8.414634,24.329268,10.487804,32733,32492,31315,1.11,1.73,-0.21,3.0,1.0,2.0,3.0
964868683,702,2020-07-28/964868683s702ms.jpg,964868683s702ms.jpg,367,30500,32919,33560,-0.07421875,-0.375,1.121582,-0.7278373046875,-3.67749375,10.9989621203,430505651.0,-1036456203,-84.39999999999998,1.874,27.42,31708,32514,32390,15.670732,20.853659,64.20730999999999,32735,32471,31323,0.86,1.66,-0.22,3.0,1.0,2.0,3.0
964868680,699,2020-07-28/964868680s699ms.jpg,964868680s699ms.jpg,654,31243,33567,33221,-0.390625,-0.20947266,0.75878906,-3.83072265625,-2.054225061189,7.441178735248999,430498332.0,-1036459180,-81.19999999999997,1.388,56.27,31272,32814,32976,-2.621951,-14.878049,90.79269,32741,32376,31317,1.15,0.77,-0.12,3.0,1.0,2.0,3.0
964868680,699,2020-07-28/964868680s699ms.jpg,964868680s699ms.jpg,674,30158,34219,32323,-0.7089844,0.2290038999999999,1.2885742,-6.95276186626,2.245761095935,12.63659617843,430498362.0,-1036459181,-81.19999999999997,1.3630000000000002,56.27,31225,32868,32920,-5.914634,-11.463414,93.65854,32736,32353,31319,1.13,0.75,-0.12,3.0,1.0,2.0,3.0
964868680,699,2020-07-28/964868680s699ms.jpg,964868680s699ms.jpg,644,31022,32874,32861,-0.052246094,-0.033691406,0.8666992,-0.5123591577251,-0.3303998266499,8.499415709680001,430498322.0,-1036459176,-81.19999999999997,1.4,56.27,31369,32740,33049,1.8902439,-19.329268,84.87805,32738,32373,31319,1.16,0.77,-0.12,3.0,1.0,2.0,3.0
964868680,699,2020-07-28/964868680s699ms.jpg,964868680s699ms.jpg,593,29796,32276,32685,0.2397461,0.052246094,1.465332,2.351106091565,0.5123591577251,14.3699980578,430498234.0,-1036459220,-81.19999999999997,1.381,56.27,31726,32598,32992,10.54878,-15.853659,63.109756,32742,32392,31318,1.14,0.76,-0.12,3.0,1.0,2.0,3.0
964868680,699,2020-07-28/964868680s699ms.jpg,964868680s699ms.jpg,552,31689,32655,33884,0.0546875,-0.5332031,0.5410156,0.5363011718749999,-5.228936180615,5.30555063374,430498148.0,-1036459267,-81.0,1.383,56.27,31800,32378,32816,23.963415,-5.121951,58.59756,32734,32362,31325,1.14,0.76,-0.12,3.0,1.0,2.0,3.0
964868680,699,2020-07-28/964868680s699ms.jpg,964868680s699ms.jpg,542,31636,32618,33745,0.072753906,-0.46533203,0.56689453,0.7134720922748999,-4.5633483519995,5.5593362426245,430498127.0,-1036459278,-81.0,1.394,56.27,31874,32397,32836,22.804878,-6.3414636,54.085365,32738,32372,31321,1.15,0.77,-0.12,3.0,1.0,2.0,3.0
964868680,699,2020-07-28/964868680s699ms.jpg,964868680s699ms.jpg,634,30418,32628,31867,0.067871094,0.45166016,1.1616211,0.6655880639751001,4.429273108064,11.391611560315,430498309.0,-1036459186,-81.19999999999997,1.4069999999999998,56.27,31497,32595,33064,10.731708,-20.243902,77.07316999999999,32733,32355,31324,1.17,0.78,-0.13,3.0,1.0,2.0,3.0
964868680,699,2020-07-28/964868680s699ms.jpg,964868680s699ms.jpg,775,30749,32168,33647,0.29248047,-0.41748047,1.0,2.8682536011255,-4.0940848511255,9.80665,430498573.0,-1036459171,-81.39999999999998,1.384,56.27,31863,32433,33375,20.609756,-39.207317,54.756096,32736,32341,31317,1.15,0.76,-0.13,3.0,1.0,2.0,3.0
964868680,699,2020-07-28/964868680s699ms.jpg,964868680s699ms.jpg,956,32219,33042,32830,-0.13427734,-0.018554688,0.28222656,-1.3168108763109998,-0.1819593310752,2.7676970946240003,430498870.0,-1036459196,-81.0,1.351,56.27,33885,32382,33926,23.719513,-72.80488000000001,-68.53658,32733,32420,31326,1.12,0.75,-0.14,3.0,1.0,2.0,3.0
964868680,699,2020-07-28/964868680s699ms.jpg,964868680s699ms.jpg,946,33044,33038,33259,-0.13232422,-0.22802734,-0.12060547,-1.297657312063,-2.236184313811,-1.1827356323755,430498850.0,-1036459196,-81.0,1.359,56.27,33707,32361,33934,25.0,-73.29269000000001,-57.682926,32732,32409,31328,1.12,0.75,-0.14,3.0,1.0,2.0,3.0
964868680,699,2020-07-28/964868680s699ms.jpg,964868680s699ms.jpg,926,30424,31933,33444,0.40722656,-0.31835938,1.1586914,3.993528344624,-3.122039013877,11.36288101781,430498826.0,-1036459200,-81.0,1.381,56.27,33265,32417,34009,21.585365,-77.86585,-30.731707,32728,32375,31334,1.14,0.76,-0.14,3.0,1.0,2.0,3.0
964868680,699,2020-07-28/964868680s699ms.jpg,964868680s699ms.jpg,916,29018,31836,32652,0.45458984,0.068359375,1.8452148,4.458003454436,0.6703764648437499,18.09537571842,430498817.0,-1036459204,-81.0,1.39,56.27,33098,32318,33954,27.621952,-74.51219,-20.54878,32733,32385,31329,1.15,0.77,-0.14,3.0,1.0,2.0,3.0
964868680,699,2020-07-28/964868680s699ms.jpg,964868680s699ms.jpg,765,30694,32078,34244,0.33642578,-0.7089844,1.0268555,3.299209875437,-6.95276186626,10.070012489075,430498554.0,-1036459169,-81.39999999999998,1.379,56.27,31794,32461,33322,18.90244,-35.97561,58.963413,32733,32330,31319,1.14,0.76,-0.13,3.0,1.0,2.0,3.0
964868680,699,2020-07-28/964868680s699ms.jpg,964868680s699ms.jpg,795,30347,32110,32503,0.32080078,0.14111328,1.1962891000000002,3.145980969187,1.383848547312,11.731588502515,430498628.0,-1036459183,-81.19999999999997,1.399,56.27,31899,32343,33452,26.09756,-43.902440000000006,52.560974,32741,32367,31315,1.16,0.77,-0.13,3.0,1.0,2.0,3.0
964868680,699,2020-07-28/964868680s699ms.jpg,964868680s699ms.jpg,7,30761,32969,32840,-0.09863281,-0.0234375,0.9941406,-0.9672574461865,-0.229843359375,9.74918891499,430497490.0,-1036460186,-80.60000000000002,1.047,56.27,32045,32364,32883,24.817074,-9.207317,43.658535,32762,32433,31290,0.87,0.58,-0.12,3.0,1.0,2.0,3.0
964868680,699,2020-07-28/964868680s699ms.jpg,964868680s699ms.jpg,147,32599,32909,31297,-0.06933594,0.72998047,0.09667969,-0.679953296001,7.158662976125499,0.9481038819385,430497640.0,-1036459927,-80.60000000000002,1.166,56.27,32641,32553,33178,13.292682999999998,-27.195122,7.3170733,32748,32399,31311,0.96,0.64,-0.11,3.0,1.0,2.0,3.0
964868680,699,2020-07-28/964868680s699ms.jpg,964868680s699ms.jpg,137,35912,32851,32472,-0.041015625,0.15625,-1.5209961,-0.40222587890625,1.5322890625,-14.915876404065,430497633.0,-1036459947,-80.60000000000002,1.161,56.27,32466,32352,33040,25.54878,-18.780487,17.987804,32753,32411,31305,0.96,0.64,-0.11,3.0,1.0,2.0,3.0
964868680,699,2020-07-28/964868680s699ms.jpg,964868680s699ms.jpg,57,28987,32236,33398,0.25927734,-0.29589844,1.8603516,2.542642126311,-2.901772436626,18.24381701814,430497543.0,-1036460144,-80.60000000000002,1.022,56.27,32089,32359,33056,25.121952,-19.756098,40.97561,32756,32415,31297,0.84,0.56,-0.12,3.0,1.0,2.0,3.0
964868680,699,2020-07-28/964868680s699ms.jpg,964868680s699ms.jpg,17,31530,33250,32923,-0.23583984,-0.063964844,0.61865234,-2.312798766936,-0.6272808374126,6.066906970061001,430497501.0,-1036460179,-80.60000000000002,1.041,56.27,32110,32344,32898,26.036585,-10.121951,39.69512,32756,32410,31298,0.86,0.57,-0.12,3.0,1.0,2.0,3.0
964868680,699,2020-07-28/964868680s699ms.jpg,964868680s699ms.jpg,481,30137,32466,31219,0.14697266,0.7680664,1.2988281000000002,1.441309436189,7.53215836156,12.737152586865,430498002.0,-1036459367,-81.0,1.37,56.27,32075,32401,32901,22.560976,-10.304878,41.82927,32739,32381,31320,1.13,0.76,-0.11,3.0,1.0,2.0,3.0
964868698,717,2020-07-28/964868698s717ms.jpg,964868698s717ms.jpg,461,29213,33949,31280,-0.57714844,0.73828125,1.75,-5.6598927491260005,7.240065820312499,17.161637499999998,430499783.0,-1036424578,-8.800000000000011,0.0,101.91,32396,33292,32253,-31.768293,29.207317,22.256098,32734,32531,31275,0.0,0.0,0.0,3.0,1.0,2.0,3.0
964868698,717,2020-07-28/964868698s717ms.jpg,964868698s717ms.jpg,471,27176,34306,26582,-0.75146484,3.0322266,2.744629,-7.369352673185999,29.735984986890003,26.91561598285,430499784.0,-1036424577,-8.800000000000011,0.0,101.91,32401,33441,32300,-40.853657,26.341463,21.951220000000003,32733,32526,31277,0.0,0.0,0.0,3.0,1.0,2.0,3.0
964868698,717,2020-07-28/964868698s717ms.jpg,964868698s717ms.jpg,359,29318,32400,33444,0.17919922,-0.31835938,1.6987305,1.7573440308129995,-3.122039013877,16.658855457825002,430499782.0,-1036424581,-8.800000000000011,0.0,101.91,32658,33334,32356,-34.32927,22.926828,6.280488,32737,32590,31263,0.0,0.0,0.0,3.0,1.0,2.0,3.0
964868698,717,2020-07-28/964868698s717ms.jpg,964868698s717ms.jpg,591,35402,32806,30546,-0.019042969,1.0966797,-1.2719726999999998,-0.18674773194385,10.754753980005,-12.473791078455,430499788.0,-1036424572,-8.800000000000011,0.0,101.91,32319,32531,32206,14.634147,32.073170000000005,26.951220000000003,32744,32516,31282,0.0,0.0,0.0,3.0,1.0,2.0,3.0
964868698,717,2020-07-28/964868698s717ms.jpg,964868698s717ms.jpg,521,35737,34076,35355,-0.63916016,-1.2514648000000002,-1.4355468999999998,-6.268019983064,-12.272677280919998,-14.077906006885,430499785.0,-1036424577,-8.800000000000011,0.0,101.91,32357,31748,32428,62.378048,18.536585,24.634146,32743,32545,31275,0.0,0.0,0.0,3.0,1.0,2.0,3.0
964868698,717,2020-07-28/964868698s717ms.jpg,964868698s717ms.jpg,125,27943,33009,33393,-0.11816406,-0.29345703,2.3701172,-1.158793578999,-2.8778303832495,23.24290983938,430499788.0,-1036424594,-8.800000000000011,0.0,101.91,32997,33048,32893,-16.890244,-9.817073,-14.390244,32723,32583,31282,0.0,0.0,0.0,3.0,1.0,2.0,3.0
964868698,717,2020-07-28/964868698s717ms.jpg,964868698s717ms.jpg,135,29893,32961,34184,-0.09472656,-0.6796875,1.4179688,-0.928950219624,-6.665457421875,13.90552373252,430499788.0,-1036424594,-8.800000000000011,0.0,101.91,33067,33060,32782,-17.621952,-3.0487804,-18.658537,32718,32566,31288,0.0,0.0,0.0,3.0,1.0,2.0,3.0
964868698,717,2020-07-28/964868698s717ms.jpg,964868698s717ms.jpg,155,31748,32897,32365,-0.06347656,0.2084961,0.51220703,-0.622492407124,2.044648279065,5.0230350707495,430499788.0,-1036424593,-8.800000000000011,0.0,101.91,33137,32608,32683,9.939024,2.987805,-22.926828,32714,32551,31290,0.0,0.0,0.0,3.0,1.0,2.0,3.0
964868698,717,2020-07-28/964868698s717ms.jpg,964868698s717ms.jpg,145,31150,33000,33413,-0.11376953,-0.30322266,0.8041991999999999,-1.1156979613745,-2.9735984986889994,7.886500084680001,430499788.0,-1036424594,-8.800000000000011,0.0,101.91,33117,32884,32654,-6.890244,4.756098000000001,-21.707317,32714,32551,31291,0.0,0.0,0.0,3.0,1.0,2.0,3.0
964868698,717,2020-07-28/964868698s717ms.jpg,964868698s717ms.jpg,245,26434,33582,32395,-0.39794922,0.19384766,3.1069336,-3.902548718313,1.900996154939,30.46861038844,430499786.0,-1036424586,-8.800000000000011,0.0,101.91,33142,32475,32568,18.04878,10.0,-23.231707,32725,32573,31278,0.0,0.0,0.0,3.0,1.0,2.0,3.0
964868698,717,2020-07-28/964868698s717ms.jpg,964868698s717ms.jpg,279,37214,32631,34153,0.06640625,-0.6645508000000001,-2.1567383,0.6512228515624999,-6.51701710282,-21.150377649695,430499784.0,-1036424583,-8.800000000000011,0.0,101.91,33321,32207,32720,34.390244,0.73170733,-34.146343,32716,32550,31288,0.02,0.0,0.01,3.0,1.0,2.0,3.0
964868698,717,2020-07-28/964868698s717ms.jpg,964868698s717ms.jpg,225,28775,32827,31975,-0.029296875,0.39892578,1.9638672,-0.28730419921875,3.912125500437,19.25895827688,430499787.0,-1036424588,-8.800000000000011,0.0,101.91,33083,32845,32611,-4.512194999999999,7.378049000000001,-19.634146,32722,32565,31282,0.0,0.0,0.0,3.0,1.0,2.0,3.0
964868628,714,2020-07-28/964868628s714ms.jpg,964868628s714ms.jpg,709,31689,32281,34112,0.23730469,-0.64453125,0.5410156,2.3271640381885,-6.320692382812499,5.30555063374,430423763.0,-1036544026,-66.19999999999999,1.46,33.98,32867,32490,32457,17.134145999999998,16.768293,-6.4634147,32683,32554,31341,0.81,1.21,-0.3,1.0,0.0,0.0,0.0
964868628,714,2020-07-28/964868628s714ms.jpg,964868628s714ms.jpg,719,31364,32360,33279,0.19873047,-0.23779297,0.69970703,1.9488801636255,-2.3319524292505,6.8617819457495,430423778.0,-1036544017,-66.19999999999999,1.436,33.92,32789,32497,32468,16.707317,16.09756,-1.7073171000000005,32679,32538,31345,0.8,1.19,-0.3,1.0,0.0,0.0,0.0
964868628,714,2020-07-28/964868628s714ms.jpg,964868628s714ms.jpg,659,30157,32964,33800,-0.096191406,-0.4921875,1.2890625,-0.9433154516498998,-4.826710546875,12.641384765624998,430423700.0,-1036544069,-66.0,1.561,30.67,33071,32626,32465,8.841463000000001,16.280487,-18.90244,32686,32569,31336,0.79,1.34,-0.31,1.0,0.0,0.0,0.0
964868628,714,2020-07-28/964868628s714ms.jpg,964868628s714ms.jpg,629,30644,32850,33051,-0.040527344,-0.12646484,1.0512695,-0.3974374780376,-1.240196423186,10.309432042175,430423651.0,-1036544091,-66.0,1.587,30.71,33115,32634,32357,8.353659,22.865854,-21.585365,32684,32563,31340,0.81,1.36,-0.31,1.0,0.0,0.0,0.0
964868628,714,2020-07-28/964868628s714ms.jpg,964868628s714ms.jpg,549,31440,32945,33874,-0.08691406,-0.5283203000000001,0.66259766,-0.852335766499,-5.181052269994999,6.497863342439,430423376.0,-1036544278,-65.60000000000002,1.5530000000000002,31.91,33237,32634,32489,8.353659,14.817073,-29.024391,32676,32530,31348,0.82,1.31,-0.31,1.0,0.0,0.0,0.0
964868628,714,2020-07-28/964868628s714ms.jpg,964868628s714ms.jpg,539,30614,32671,33978,0.046875,-0.57910156,1.065918,0.45968671875,-5.679046313373999,10.4530847547,430423337.0,-1036544303,-65.60000000000002,1.54,32.58,33231,32656,32545,7.012194999999999,11.402439,-28.658537,32675,32531,31350,0.82,1.29,-0.31,1.0,0.0,0.0,0.0
964868628,714,2020-07-28/964868628s714ms.jpg,964868628s714ms.jpg,998,30337,32857,34105,-0.043945312,-0.6411133000000001,1.2011718999999998,-0.4309562939248,-6.287173743444999,11.779472413135,430424280.0,-1036543481,-67.19999999999999,1.277,52.13,32829,32703,32906,4.1463413000000005,-10.609756,-4.1463413000000005,32681,32540,31353,1.0,0.78,-0.3,1.0,0.0,0.0,0.0
964868628,714,2020-07-28/964868628s714ms.jpg,964868628s714ms.jpg,938,29731,32693,34085,0.036132812,-0.63134766,1.4970703,0.3543418407998,-6.191405529939,14.681244457495,430424172.0,-1036543610,-66.80000000000001,1.252,49.32,32552,32887,32786,-7.0731707,-3.292683,12.743902,32688,32551,31347,0.94,0.81,-0.3,1.0,0.0,0.0,0.0
964868628,714,2020-07-28/964868628s714ms.jpg,964868628s714ms.jpg,928,29225,32792,34074,-0.012207031,-0.62597656,1.7441406000000004,-0.1197100805561499,-6.138733032124,17.104176414989993,430424162.0,-1036543628,-66.80000000000001,1.242,47.9,32499,32918,32748,-8.963414,-0.9756098,15.97561,32685,32539,31352,0.92,0.83,-0.3,1.0,0.0,0.0,0.0
964868628,714,2020-07-28/964868628s714ms.jpg,964868628s714ms.jpg,898,31303,32878,31983,-0.05419922,0.39501953,0.7294921999999999,-0.5315127808129999,3.8738182738745,7.153874683130001,430424129.0,-1036543692,-66.80000000000001,1.223,42.81,32330,32720,32632,3.109756,6.097561,26.280487,32677,32523,31358,0.83,0.89,-0.3,1.0,0.0,0.0,0.0
964868628,714,2020-07-28/964868628s714ms.jpg,964868628s714ms.jpg,867,31678,33218,32982,-0.22021484,-0.09277344,0.5463866999999999,-2.159569860686,-0.909796655376,5.358223131555,430424110.0,-1036543726,-66.60000000000002,1.334,40.06,32399,32626,32610,8.841463000000001,7.439024400000001,22.073172,32684,32547,31352,0.85,1.02,-0.3,1.0,0.0,0.0,0.0
964868628,714,2020-07-28/964868628s714ms.jpg,964868628s714ms.jpg,208,31139,33176,33637,-0.19970703,-0.41259766,0.8095703000000001,-1.9584569457495,-4.046200842438999,7.939172582494999,430422318.0,-1036544902,-64.60000000000002,1.399,39.67,33476,32565,32964,12.560976,-14.146341,-43.59756,32678,32495,31354,0.89,1.07,-0.31,1.0,0.0,0.0,0.0
964868628,714,2020-07-28/964868628s714ms.jpg,964868628s714ms.jpg,198,30432,33223,33318,-0.22265625,-0.25683594,1.1547851999999998,-2.1835119140625,-2.5187001710009995,11.32457428158,430422285.0,-1036544921,-64.39999999999998,1.394,41.21,33501,32609,33019,9.878049,-17.5,-45.121952,32683,32508,31353,0.91,1.04,-0.31,1.0,0.0,0.0,0.0
964868628,714,2020-07-28/964868628s714ms.jpg,964868628s714ms.jpg,115,30745,32520,33418,0.12060547,-0.30566406,1.0019531,1.1827356323755,-2.997540453999,9.825803368115,430422032.0,-1036545108,-64.19999999999999,1.361,44.91,33399,32557,33114,13.04878,-23.292683,-38.902440000000006,32693,32513,31353,0.96,0.96,-0.32,1.0,0.0,0.0,0.0
964868628,714,2020-07-28/964868628s714ms.jpg,964868628s714ms.jpg,75,31231,32624,33470,0.06982422,-0.3310547,0.76464844,0.6847416870630001,-3.2465375737549995,7.498639624126,430421976.0,-1036545123,-64.0,1.432,46.15,33349,32525,33028,15.0,-18.04878,-35.853657,32690,32479,31361,1.03,0.99,-0.33,1.0,0.0,0.0,0.0
964868628,714,2020-07-28/964868628s714ms.jpg,964868628s714ms.jpg,258,30680,33326,33418,-0.27294922,-0.30566406,1.0336914,-2.676717468313,-2.997540453999,10.137049767809998,430422458.0,-1036544805,-64.80000000000001,1.41,39.47,33336,32591,32790,10.97561,-3.5365853,-35.060974,32681,32517,31353,0.89,1.08,-0.31,1.0,0.0,0.0,0.0
964868628,714,2020-07-28/964868628s714ms.jpg,964868628s714ms.jpg,489,31714,33084,33815,-0.15478516,-0.49951172,0.5288086,-1.517923889314,-4.8985366089380005,5.1858408571900005,430423114.0,-1036544457,-65.39999999999998,1.499,33.57,33239,32528,32533,14.817073,12.134147,-29.146341,32676,32527,31351,0.82,1.24,-0.31,1.0,0.0,0.0,0.0
964868628,714,2020-07-28/964868628s714ms.jpg,964868628s714ms.jpg,374,29417,33092,32617,-0.1586914,0.08544922,1.6503906000000004,-1.5562310178100005,0.8379705933130001,16.184802977489998,430422665.0,-1036544660,-65.0,1.48,38.65,33086,32783,32673,-0.73170733,3.597561,-19.817074,32687,32555,31344,0.92,1.15,-0.3,1.0,0.0,0.0,0.0
964868628,714,2020-07-28/964868628s714ms.jpg,964868628s714ms.jpg,328,31869,33562,33123,-0.3881835999999999,-0.1616211,0.453125,-3.806780700940001,-1.5849615603149998,4.44363828125,430422598.0,-1036544701,-65.0,1.4469999999999998,40.68,33063,32648,32611,7.5,7.378049000000001,-18.414635,32679,32525,31354,0.94,1.09,-0.3,1.0,0.0,0.0,0.0
964868628,714,2020-07-28/964868628s714ms.jpg,964868628s714ms.jpg,318,31357,33345,33228,-0.28222656,-0.21289062,0.703125,-2.7676970946240003,-2.0877437986230003,6.89530078125,430422579.0,-1036544713,-65.0,1.4269999999999998,41.02,33093,32643,32641,7.804877999999999,5.5487804,-20.243902,32682,32536,31350,0.93,1.07,-0.32,1.0,0.0,0.0,0.0
964868665,718,2020-07-28/964868665s718ms.jpg,964868665s718ms.jpg,615,29874,32871,32880,-0.05078125,-0.04296875,1.4272461,-0.4979939453125,-0.4213794921875,13.996502966565002,430490973.0,-1036485189,-144.8,5.917000000000001,38.53,33161,32627,32669,8.780488,3.8414633,-24.390244,32688,32611,31232,3.68,4.62,-0.33,2.0,1.0,1.0,2.0
964868665,718,2020-07-28/964868665s718ms.jpg,964868665s718ms.jpg,595,31331,33321,32869,-0.2705078,-0.037597656,0.7158203000000001,-2.65277531687,-0.3687070532124,7.019799144994999,430490917.0,-1036485298,-144.60000000000005,5.922999999999999,38.23,33238,32642,32648,7.865854,5.121951,-29.085365000000003,32690,32620,31231,3.66,4.65,-0.32,2.0,1.0,1.0,2.0
964868665,718,2020-07-28/964868665s718ms.jpg,964868665s718ms.jpg,757,31632,33098,34244,-0.1616211,-0.7089844,0.56884766,-1.5849615603149998,-6.95276186626,5.578489904939,430491027.0,-1036484666,-145.2,5.475,38.32,33272,32541,32571,14.02439,9.817073,-31.158537,32694,32605,31222,3.39,4.29,-0.31,2.0,1.0,1.0,2.0
964868665,718,2020-07-28/964868665s718ms.jpg,964868665s718ms.jpg,978,30949,32802,32936,-0.017089844,-0.0703125,0.90234375,-0.1675941186626,-0.689530078125,8.8489693359375,430491531.0,-1036483968,-146.0,5.048,17.02,32801,32638,32514,8.109755999999999,13.292682999999998,-2.4390244,32707,32628,31220,1.47,4.82,-0.3,2.0,1.0,1.0,2.0
964868665,718,2020-07-28/964868665s718ms.jpg,964868665s718ms.jpg,937,30479,33214,33043,-0.21826172,-0.122558594,1.1318358999999998,-2.140416296438,-1.2018892358501,11.099518528735,430491368.0,-1036484107,-146.0,5.152,19.17,32851,32591,32525,10.97561,12.621951,-5.487805000000001,32699,32607,31225,1.69,4.86,-0.3,2.0,1.0,1.0,2.0
964868665,718,2020-07-28/964868665s718ms.jpg,964868665s718ms.jpg,857,30299,32938,33077,-0.083496094,-0.13916016,1.2197266000000002,-0.8188169702250999,-1.364694983064,11.96143186189,430491124.0,-1036484331,-145.8,5.396,29.5,33091,32530,32633,14.695122,6.0365853,-20.121952,32695,32604,31222,2.65,4.69,-0.3,2.0,1.0,1.0,2.0
964868665,718,2020-07-28/964868665s718ms.jpg,964868665s718ms.jpg,847,30218,33027,33437,-0.12695312,-0.3149414,1.2592773000000002,-1.244984814248,-3.0885200803099995,12.349291734044998,430491138.0,-1036484342,-145.8,5.381,30.51,33146,32561,32606,12.804878,7.6829267,-23.475609,32698,32614,31220,2.73,4.63,-0.32,2.0,1.0,1.0,2.0
964868665,718,2020-07-28/964868665s718ms.jpg,964868665s718ms.jpg,887,30581,32833,33438,-0.032226562,-0.3154297,1.0820312,-0.3160346142372999,-3.093308667505,10.61110126748,430491134.0,-1036484308,-145.8,5.234,22.92,32947,32537,32499,14.268292,14.207317000000002,-11.341463,32701,32618,31220,2.03,4.82,-0.3,2.0,1.0,1.0,2.0
964868665,718,2020-07-28/964868665s718ms.jpg,964868665s718ms.jpg,503,28953,33486,33336,-0.35107422,-0.265625,1.8769531000000004,-3.442861999563,-2.60489140625,18.406622118115,430490671.0,-1036485779,-144.39999999999995,6.093,35.15,33343,32764,32882,0.42682928,-9.146341,-35.487804,32684,32611,31240,3.5,4.98,-0.34,2.0,1.0,1.0,2.0
964868665,718,2020-07-28/964868665s718ms.jpg,964868665s718ms.jpg,151,28988,32528,32563,0.11669922,0.111816406,1.8598633,1.144428405813,1.0965443578999,18.239028430945,430488771.0,-1036487696,-143.8,5.773,5.56,32330,32678,32923,5.6707315000000005,-11.646341,26.280487,32723,32576,31264,0.55,5.74,-0.3,2.0,1.0,1.0,2.0
964868665,718,2020-07-28/964868665s718ms.jpg,964868665s718ms.jpg,111,30181,32403,33002,0.17773438,-0.10253906,1.2773438,1.7429788576269998,-1.005564672749,12.52646357627,430488481.0,-1036487839,-143.8,5.572,9.43,32035,32905,32657,-8.170732000000001,4.5731707,44.26829,32717,32554,31266,0.91,5.49,-0.31,2.0,1.0,1.0,2.0
964868665,718,2020-07-28/964868665s718ms.jpg,964868665s718ms.jpg,101,29962,32532,32502,0.114746094,0.14160156,1.3842773000000002,1.1252747827251002,1.3886369383739998,13.575122984045,430488419.0,-1036487870,-143.8,5.5520000000000005,10.26,31964,32967,32600,-11.95122,8.04878,48.59756,32719,32567,31264,0.98,5.46,-0.31,2.0,1.0,1.0,2.0
964868665,718,2020-07-28/964868665s718ms.jpg,964868665s718ms.jpg,442,32057,32857,33368,-0.043945312,-0.28125,0.36132812,-0.4309562939248,-2.7581203125,3.543418407998,430490307.0,-1036486308,-144.2,5.579,27.22,33646,32568,33032,12.378049,-18.292683,-53.963413,32686,32606,31246,2.55,4.96,-0.33,2.0,1.0,1.0,2.0
964868665,718,2020-07-28/964868665s718ms.jpg,964868665s718ms.jpg,402,29984,33342,32667,-0.28076172,0.0610351559999999,1.3735351999999998,-2.7533319214380003,0.5985504125873999,13.46977896908,430490093.0,-1036486527,-144.2,5.56,24.16,33817,32619,33129,9.268292,-24.207317,-64.39024,32696,32628,31245,2.27,5.07,-0.33,2.0,1.0,1.0,2.0
964868665,718,2020-07-28/964868665s718ms.jpg,964868665s718ms.jpg,392,31250,33392,33145,-0.30517578,-0.17236328,0.7553711,-2.992752062937,-1.690306359812,7.407659997814998,430490043.0,-1036486567,-144.2,5.561,23.85,33786,32600,33179,10.426829,-27.256098,-62.5,32692,32603,31252,2.24,5.08,-0.33,2.0,1.0,1.0,2.0
964868665,718,2020-07-28/964868665s718ms.jpg,964868665s718ms.jpg,372,31126,32925,33423,-0.07714844,-0.30810547,0.81591797,-0.7565677491259999,-3.0214825073755,8.001421960500501,430489962.0,-1036486642,-144.2,5.551,22.76,33703,32615,33244,9.512196,-31.219513,-57.439026,32693,32596,31255,2.14,5.11,-0.33,2.0,1.0,1.0,2.0
964868665,718,2020-07-28/964868665s718ms.jpg,964868665s718ms.jpg,352,29667,32453,33342,0.15332031,-0.2685547,1.5283203,1.5035586180614997,-2.633621948755,14.987702269995,430489876.0,-1036486746,-144.0,5.516,20.22,33590,32633,33258,8.414634,-32.073170000000005,-50.548782,32705,32619,31248,1.9,5.17,-0.32,2.0,1.0,1.0,2.0
964868665,718,2020-07-28/964868665s718ms.jpg,964868665s718ms.jpg,262,33018,32431,31443,0.1640625,0.6586914,-0.107910156,1.608903515625,6.45955601781,-1.0582371313374002,430489394.0,-1036487237,-143.8,5.593,9.43,33066,32578,33212,11.768292,-29.268293,-18.59756,32712,32586,31261,0.91,5.51,-0.31,2.0,1.0,1.0,2.0
964868665,718,2020-07-28/964868665s718ms.jpg,964868665s718ms.jpg,312,31248,32609,32822,0.07714844,-0.0146484375,0.75634766,0.7565677491259999,-0.143652099609375,7.417236779938999,430489693.0,-1036486930,-144.0,5.49,15.95,33423,32722,33247,2.987805,-31.40244,-40.365852,32705,32597,31260,1.5,5.27,-0.32,2.0,1.0,1.0,2.0
964868665,718,2020-07-28/964868665s718ms.jpg,964868665s718ms.jpg,282,29014,32781,33984,-0.0068359375,-0.58203125,1.847168,-0.0670376464843749,-5.7077767578125,18.1145300672,430489501.0,-1036487125,-143.8,5.535,11.86,33208,32918,33163,-8.963414,-26.280487,-27.256098,32712,32600,31258,1.13,5.41,-0.31,2.0,1.0,1.0,2.0
964868578,697,2020-07-28/964868578s697ms.jpg,964868578s697ms.jpg,629,30723,32661,33014,0.051757812,-0.10839844,1.0126953,0.5075707470498,-1.0630255616259998,9.931148363745,430432947.0,-1036560806,23.600000000000023,2.787,277.39,32789,32675,32811,5.8536587,-4.8170733,-1.7073171000000005,32747,32520,31199,-2.76,0.35,-0.08,1.0,0.0,0.0,0.0
964868578,697,2020-07-28/964868578s697ms.jpg,964868578s697ms.jpg,518,30754,33315,32898,-0.26757812,-0.051757812,0.9975586,-2.624044970498,-0.5075707470498,9.78270804469,430433156.0,-1036560256,23.79999999999995,2.89,280.02,32247,32813,32726,-2.5609756,0.36585367,31.341463,32747,32524,31198,-2.84,0.5,-0.07,1.0,0.0,0.0,0.0
964868578,697,2020-07-28/964868578s697ms.jpg,964868578s697ms.jpg,578,30459,32919,33218,-0.07421875,-0.20800781,1.1416016000000002,-0.7278373046875,-2.0398597899365,11.19528733064,430433050.0,-1036560545,23.79999999999995,2.793,279.32,32512,32760,32715,0.6707316999999999,1.0365853,15.182927,32755,32552,31192,-2.75,0.45,-0.08,1.0,0.0,0.0,0.0
964868578,697,2020-07-28/964868578s697ms.jpg,964868578s697ms.jpg,619,31032,32619,33408,0.072265625,-0.30078125,0.8618164,0.70868369140625,-2.9496564453125,8.45153179906,430432963.0,-1036560760,23.600000000000023,2.792,277.59,32745,32675,32831,5.8536587,-6.0365853,0.9756098,32747,32521,31200,-2.76,0.36,-0.08,1.0,0.0,0.0,0.0
964868578,697,2020-07-28/964868578s697ms.jpg,964868578s697ms.jpg,935,30167,32881,32988,-0.055664062,-0.095703125,1.2841797,-0.5458779736123001,-0.93852705078125,12.593500855005,430431740.0,-1036562392,22.79999999999995,1.936,250.97,32972,32829,32726,-3.5365853,0.36585367,-12.865853,32750,32539,31180,-1.82,-0.63,-0.11,1.0,0.0,0.0,0.0
964868578,697,2020-07-28/964868578s697ms.jpg,964868578s697ms.jpg,845,30027,32612,33414,0.075683594,-0.30371094,1.3525391000000002,0.7422025171000999,-2.9783868897509995,13.263877565015,430432127.0,-1036561970,23.20000000000005,2.122,257.09,33366,32834,32729,-3.8414633,0.18292683,-36.890244,32753,32559,31179,-2.06,-0.47,-0.09,1.0,0.0,0.0,0.0
964868578,697,2020-07-28/964868578s697ms.jpg,964868578s697ms.jpg,791,31240,33352,33747,-0.28564453,-0.4663085999999999,0.7602539,-2.8012159301245,-4.57292523219,7.455543908435001,430432467.0,-1036561608,23.399999999999977,2.466,264.18,33402,32778,32804,-0.42682928,-4.390244,-39.085365,32746,32530,31193,-2.45,-0.24,-0.09,1.0,0.0,0.0,0.0
964868578,697,2020-07-28/964868578s697ms.jpg,964868578s697ms.jpg,208,30555,33144,32864,-0.18408203,-0.03515625,1.0947266000000002,-1.8052280394995,-0.3447650390625,10.735600611889998,430434051.0,-1036558878,24.600000000000023,1.625,286.74,32696,32729,32683,2.5609756,2.987805,3.9634147,32750,32531,31181,-1.55,0.46,-0.06,1.0,0.0,0.0,0.0
964868578,697,2020-07-28/964868578s697ms.jpg,964868578s697ms.jpg,198,30650,33097,33146,-0.16113281,-0.17285156,1.0483398000000002,-1.5801730711865,-1.6950947508739995,10.280701499669998,430434081.0,-1036558844,24.600000000000023,1.59,286.83,32705,32729,32714,2.5609756,1.097561,3.4146342000000005,32751,32534,31179,-1.52,0.46,-0.06,1.0,0.0,0.0,0.0
964868578,697,2020-07-28/964868578s697ms.jpg,964868578s697ms.jpg,128,31112,32725,33343,0.020507812,-0.26904297,0.8227539,0.2011129345497999,-2.6384102417505,8.068459533435,430434328.0,-1036558555,24.600000000000023,1.523,284.42,33058,32627,32792,8.780488,-3.6585367,-18.109756,32745,32520,31186,-1.47,0.37,-0.04,1.0,0.0,0.0,0.0
964868578,697,2020-07-28/964868578s697ms.jpg,964868578s697ms.jpg,108,30917,32633,33529,0.06542969,-0.35986328,0.91796875,0.6416460694385,-3.529053234812,9.0021982421875,430434415.0,-1036558485,24.600000000000023,1.539,284.77,33181,32646,32862,7.621950999999999,-7.9268293,-25.609756,32751,32544,31179,-1.48,0.39,-0.04,1.0,0.0,0.0,0.0
964868578,697,2020-07-28/964868578s697ms.jpg,964868578s697ms.jpg,65,30760,32600,33155,0.08154297,-0.1772461,0.9946289,0.7996633667505001,-1.738190466565,9.753977502185,430434606.0,-1036558345,24.79999999999995,1.504,287.6,33342,32689,32889,5.0,-9.573171,-35.426829999999995,32748,32528,31184,-1.43,0.45,-0.04,1.0,0.0,0.0,0.0
964868578,697,2020-07-28/964868578s697ms.jpg,964868578s697ms.jpg,45,30965,32315,33290,0.22070312,-0.24316406,0.89453125,2.164358251748,-2.384624828999,8.772354882812499,430434676.0,-1036558282,24.79999999999995,1.474,289.0,33409,32722,32814,2.987805,-5.0,-39.512196,32748,32525,31186,-1.39,0.47,-0.04,1.0,0.0,0.0,0.0
964868578,697,2020-07-28/964868578s697ms.jpg,964868578s697ms.jpg,458,31046,33268,33594,-0.2446288999999999,-0.39160156,0.85498047,-2.398990002185,-3.840299438374,8.384494226125499,430433280.0,-1036559967,24.0,2.5860000000000003,279.45,32219,32758,32723,0.79268295,0.5487805,33.048782,32745,32517,31194,-2.55,0.42,-0.07,1.0,0.0,0.0,0.0
964868578,697,2020-07-28/964868578s697ms.jpg,964868578s697ms.jpg,448,30906,33425,33598,-0.32128906,-0.3935547,0.92333984,-3.1507693602490003,-3.859453198755,9.054870641936,430433315.0,-1036559910,24.0,2.444,280.15,32191,32774,32746,-0.18292683,-0.85365856,34.756096,32747,32525,31193,-2.4,0.43,-0.07,1.0,0.0,0.0,0.0
964868578,697,2020-07-28/964868578s697ms.jpg,964868578s697ms.jpg,418,30727,33197,33138,-0.20996094,-0.16894531,1.0107422,-2.059013452251,-1.6567875243114998,9.911994995629998,430433405.0,-1036559791,24.0,2.211,282.28,32217,32757,32710,0.85365856,1.3414634,33.17073,32758,32562,31181,-2.16,0.47,-0.07,1.0,0.0,0.0,0.0
964868578,697,2020-07-28/964868578s697ms.jpg,964868578s697ms.jpg,388,31106,32814,33848,-0.022949219,-0.515625,0.8256836,-0.22505495850635,-5.05655390625,8.097190075939999,430433494.0,-1036559668,24.20000000000005,2.177,283.19,32247,32818,32717,-2.8658535,0.91463417,31.341463,32746,32526,31190,-2.11,0.49,-0.07,1.0,0.0,0.0,0.0
964868578,697,2020-07-28/964868578s697ms.jpg,964868578s697ms.jpg,348,30367,33094,33475,-0.15966797,-0.3334960999999999,1.1865233999999998,-1.5658078980005,-3.270479529065,11.635819700610002,430433607.0,-1036559463,24.20000000000005,2.176,284.71,32331,32842,32705,-4.3292685,1.6463414,26.219513,32754,32552,31177,-2.1,0.55,-0.07,1.0,0.0,0.0,0.0
964868578,697,2020-07-28/964868578s697ms.jpg,964868578s697ms.jpg,308,30790,32868,33265,-0.0493164059999999,-0.23095703,0.97998047,-0.4836287328999,-2.2649147582495,9.6103254761255,430433749.0,-1036559277,24.20000000000005,2.193,285.63,32423,32828,32727,-3.4756098,0.30487806,20.609756,32749,32532,31184,-2.11,0.59,-0.06,1.0,0.0,0.0,0.0
964868578,697,2020-07-28/964868578s697ms.jpg,964868578s697ms.jpg,358,30402,33077,33132,-0.15136719,-0.16601562,1.1694336,-1.4844050538135,-1.628057079873,11.46822601344,430433572.0,-1036559516,24.20000000000005,2.172,284.28,32323,32840,32704,-4.207317,1.7073171000000005,26.707317,32754,32550,31177,-2.1,0.53,-0.07,1.0,0.0,0.0,0.0
964868577,730,2020-07-28/964868577s730ms.jpg,964868577s730ms.jpg,713,30620,33070,33173,-0.14794922,-0.18603516,1.0629883,-1.4508862183129998,-1.824381701814,10.424354212195,430435735.0,-1036557150,25.600000000000023,1.047,306.52,32415,32799,32841,-1.7073171000000005,-6.6463413000000005,21.09756,32754,32510,31198,-0.84,0.62,-0.04,1.0,0.0,0.0,0.0
964868577,730,2020-07-28/964868577s730ms.jpg,964868577s730ms.jpg,652,30695,33024,33211,-0.12548828,-0.20458984,1.0263672,-1.2306196410619998,-2.006340954436,10.065223901879998,430435716.0,-1036557042,25.600000000000023,1.025,307.9,32299,32806,32865,-2.1341465,-8.109755999999999,28.170732,32754,32502,31196,-0.8,0.62,-0.04,1.0,0.0,0.0,0.0
964868577,730,2020-07-28/964868577s730ms.jpg,964868577s730ms.jpg,642,30869,33037,33296,-0.13183594,-0.24609375,0.94140625,-1.292868921001,-2.4133552734375,9.2320416015625,430435711.0,-1036557024,25.600000000000023,1.017,308.11,32299,32801,32871,-1.8292683,-8.475610000000001,28.170732,32755,32506,31196,-0.79,0.62,-0.04,1.0,0.0,0.0,0.0
964868577,730,2020-07-28/964868577s730ms.jpg,964868577s730ms.jpg,753,30592,32478,32927,0.14111328,-0.06591797,1.0766601999999998,1.383848547312,-0.6464344605005,10.55842975033,430435754.0,-1036557221,25.600000000000023,1.0590000000000002,305.84,32602,32795,32881,-1.4634147,-9.085366,9.695122,32758,32528,31194,-0.85,0.62,-0.04,1.0,0.0,0.0,0.0
964868577,730,2020-07-28/964868577s730ms.jpg,964868577s730ms.jpg,995,31006,32469,33157,0.14550781,-0.17822266,0.8745117,1.4269441649364998,-1.747767248689,8.576030162804999,430434984.0,-1036558125,25.0,1.338,292.95,33413,32679,32918,5.609756,-11.341463,-39.756096,32747,32522,31190,-1.23,0.52,-0.04,1.0,0.0,0.0,0.0
964868577,730,2020-07-28/964868577s730ms.jpg,964868577s730ms.jpg,985,31619,32210,33250,0.27197266,-0.22363281,0.5751953000000001,2.667140686189,-2.1930886961865,5.640738988745,430435033.0,-1036558089,25.0,1.307,293.9,33460,32646,32931,7.621950999999999,-12.134147,-42.621952,32748,32524,31192,-1.19,0.52,-0.04,1.0,0.0,0.0,0.0
964868577,730,2020-07-28/964868577s730ms.jpg,964868577s730ms.jpg,955,30995,32701,33427,0.032226562,-0.3100585999999999,0.8798828000000002,0.3160346142372999,-3.0406361696900004,8.628702660619997,430435144.0,-1036558023,25.0,1.254,296.64,33379,32691,32904,4.878049,-10.487804,-37.682926,32758,32556,31181,-1.12,0.56,-0.04,1.0,0.0,0.0,0.0
964868577,730,2020-07-28/964868577s730ms.jpg,964868577s730ms.jpg,913,30527,32419,32874,0.16992188,-0.040039062,1.1083983999999998,1.666364404502,-0.3926490673623,10.86967516936,430435644.0,-1036557899,25.20000000000005,1.259,302.84,33381,32735,32955,2.195122,-13.597561,-37.80488,32749,32522,31194,-1.05,0.68,-0.04,1.0,0.0,0.0,0.0
964868577,730,2020-07-28/964868577s730ms.jpg,964868577s730ms.jpg,873,30395,32761,32783,0.0029296875,0.0043945312,1.1728516000000002,0.028730419921875,0.04309562939248,11.50174514314,430435998.0,-1036557765,25.399999999999977,1.256,307.53,33148,32779,33021,-0.4878049,-17.621952,-23.59756,32754,32529,31193,-0.99,0.76,-0.04,1.0,0.0,0.0,0.0
964868577,730,2020-07-28/964868577s730ms.jpg,964868577s730ms.jpg,833,30748,32510,33231,0.12548828,-0.21435547,1.0004883,1.2306196410619998,-2.1021090698755,9.811438587195,430435818.0,-1036557378,25.399999999999977,1.127,305.69,32914,32822,32956,-3.109756,-13.658537,-9.329268,32751,32509,31197,-0.91,0.65,-0.04,1.0,0.0,0.0,0.0
964868577,730,2020-07-28/964868577s730ms.jpg,964868577s730ms.jpg,161,31159,32687,33127,0.0390625,-0.16357422,0.7998046999999999,0.383072265625,-1.604115124563,7.843404761255,430435250.0,-1036556381,25.79999999999995,0.0,146.73,32884,32752,32587,1.1585366,8.841463000000001,-7.5,32753,32499,31176,0.1,-0.24,-0.03,1.0,0.0,0.0,0.0
964868577,730,2020-07-28/964868577s730ms.jpg,964868577s730ms.jpg,71,30884,33164,33032,-0.19384766,-0.1171875,0.93408203,-1.900996154939,-1.149216796875,9.1602155394995,430435207.0,-1036556302,25.79999999999995,0.0,146.73,33165,32735,32730,2.195122,0.12195122,-24.634146,32754,32515,31177,0.06,-0.14,-0.04,1.0,0.0,0.0,0.0
964868577,730,2020-07-28/964868577s730ms.jpg,964868577s730ms.jpg,61,30774,33095,33178,-0.16015625,-0.18847656,0.98779297,-1.5705962890624998,-1.848323657124,9.6869399292505,430435202.0,-1036556293,25.79999999999995,0.0,146.73,33165,32739,32746,1.9512196,-0.85365856,-24.634146,32757,32527,31172,0.05,-0.13,-0.04,1.0,0.0,0.0,0.0
964868577,730,2020-07-28/964868577s730ms.jpg,964868577s730ms.jpg,231,31095,33003,33572,-0.115234375,-0.38085938,0.8310546999999998,-1.13006318359375,-3.734954638877,8.149862573755,430435322.0,-1036556483,25.79999999999995,0.412,295.91,32452,32715,32533,3.4146342000000005,12.134147,18.841463,32760,32527,31173,-0.37,0.17,-0.03,1.0,0.0,0.0,0.0
964868577,730,2020-07-28/964868577s730ms.jpg,964868577s730ms.jpg,1,31121,32758,33017,0.0043945312,-0.10986328,0.8183594,0.04309562939248,-1.077390734812,8.025364210009997,430435226.0,-1036556224,25.600000000000023,0.0,146.73,33107,32690,32775,4.939024400000001,-2.621951,-21.09756,32754,32515,31179,0.04,-0.11,-0.05,1.0,0.0,0.0,0.0
964868577,730,2020-07-28/964868577s730ms.jpg,964868577s730ms.jpg,431,31153,32452,32870,0.1538086,-0.038085938,0.8027344,1.50834710719,-0.3734954638877,7.872135303759999,430435533.0,-1036556659,25.600000000000023,0.792,310.34,32193,32811,32696,-2.4390244,2.195122,34.634148,32760,32496,31186,-0.6,0.51,-0.04,1.0,0.0,0.0,0.0
964868577,730,2020-07-28/964868577s730ms.jpg,964868577s730ms.jpg,391,30681,33057,33254,-0.14160156,-0.22558594,1.0332031,-1.3886369383739998,-2.2122423585010003,10.132261180614998,430435526.0,-1036556650,25.600000000000023,0.723,308.51,32140,32891,32651,-7.3170733,4.939024400000001,37.865852,32758,32493,31187,-0.56,0.44,-0.03,1.0,0.0,0.0,0.0
964868577,730,2020-07-28/964868577s730ms.jpg,964868577s730ms.jpg,411,30887,32667,33177,0.048828125,-0.18798828,0.9326171999999998,0.47884033203125,-1.843535266062,9.14585046438,430435523.0,-1036556658,25.600000000000023,0.763,309.13,32208,32830,32701,-3.597561,1.8902439,33.719513,32760,32502,31185,-0.59,0.48,-0.03,1.0,0.0,0.0,0.0
964868577,730,2020-07-28/964868577s730ms.jpg,964868577s730ms.jpg,341,31068,32566,33198,0.09814453,-0.19824219,0.8442383,0.9624690551245,-1.9440917725635,8.279149524694999,430435424.0,-1036556573,25.79999999999995,0.596,304.85,32072,32791,32569,-1.2195122,9.939024,42.012196,32762,32511,31181,-0.48,0.34,-0.03,1.0,0.0,0.0,0.0
964868577,730,2020-07-28/964868577s730ms.jpg,964868577s730ms.jpg,361,30704,32788,32668,-0.010253906,0.060546875,1.0219726999999998,-0.1005564672748999,0.59376201171875,10.022128578455,430435471.0,-1036556596,25.79999999999995,0.643,307.26,32074,32841,32549,-4.268293,11.158537,41.890244,32764,32517,31177,-0.51,0.38,-0.03,1.0,0.0,0.0,0.0
964868624,710,2020-07-28/964868624s710ms.jpg,964868624s710ms.jpg,691,30930,32086,33295,0.33251953,-0.24560547,0.9116211,3.2609026488745,-2.4085668823755,8.939949060315,430420798.0,-1036541821,-48.399999999999984,1.6869999999999998,213.55,32236,32580,32843,11.646341,-6.768292999999999,32.012196,32724,32443,31338,-0.93,-1.4,-0.21,1.0,0.0,0.0,1.0
964868624,710,2020-07-28/964868624s710ms.jpg,964868624s710ms.jpg,711,31092,32586,32177,0.088378906,0.30029297,0.83251953,0.8667009985248999,2.9448680542505,8.1642276488745,430420644.0,-1036541929,-48.600000000000016,2.031,206.63,32306,32491,32810,17.073172,-4.756098000000001,27.743902,32715,32418,31342,-0.91,-1.81,-0.21,1.0,0.0,0.0,1.0
964868624,710,2020-07-28/964868624s710ms.jpg,964868624s710ms.jpg,637,30063,33270,33651,-0.24560547,-0.4194335999999999,1.3349608999999998,-2.4085668823755,-4.113238513440001,13.091494309985,430420900.0,-1036541737,-48.19999999999999,1.612,224.87,32257,32872,32785,-6.1585364,-3.2317073,30.731707,32721,32428,31340,-1.13,-1.14,-0.21,1.0,0.0,0.0,1.0
964868624,710,2020-07-28/964868624s710ms.jpg,964868624s710ms.jpg,627,29973,32831,33180,-0.03125,-0.18945312,1.3789062,-0.3064578125,-1.857900439248,13.52245048623,430420918.0,-1036541720,-48.19999999999999,1.61,226.43,32263,32837,32907,-4.02439,-10.670732,30.365854,32723,32441,31338,-1.16,-1.1,-0.21,1.0,0.0,0.0,1.0
964868624,710,2020-07-28/964868624s710ms.jpg,964868624s710ms.jpg,607,30576,32385,31706,0.18652344,0.53027344,1.0844726999999998,1.829170092876,5.200206030375999,10.635044203455,430420946.0,-1036541687,-48.0,1.607,228.84,32297,32614,32796,9.573171,-3.902439,28.292683,32728,32458,31330,-1.2,-1.05,-0.21,1.0,0.0,0.0,1.0
964868624,710,2020-07-28/964868624s710ms.jpg,964868624s710ms.jpg,597,32049,32189,33219,0.28222656,-0.2084961,0.36523438,2.7676970946240003,-2.044648279065,3.581725732627,430420974.0,-1036541662,-48.0,1.5019999999999998,231.34,32327,32537,32869,14.268292,-8.353659,26.463415,32727,32454,31332,-1.17,-0.93,-0.21,1.0,0.0,0.0,1.0
964868624,710,2020-07-28/964868624s710ms.jpg,964868624s710ms.jpg,986,31155,33873,32980,-0.54003906,-0.091796875,0.8017578000000001,-5.2959740477490005,-0.9002198242187499,7.862558129369999,430420179.0,-1036541901,-49.399999999999984,1.6769999999999998,173.66,33123,32679,33028,5.609756,-18.04878,-22.073172,32713,32464,31341,0.18,-1.66,-0.22,1.0,0.0,0.0,1.0
964868624,710,2020-07-28/964868624s710ms.jpg,964868624s710ms.jpg,964,30086,33521,33157,-0.36816406,-0.17822266,1.3237305,-3.610456078999,-1.747767248689,12.981361707824998,430420198.0,-1036541943,-49.19999999999999,1.7380000000000002,179.38,33123,32775,32915,-0.24390244,-11.158537,-22.073172,32713,32462,31343,0.01,-1.73,-0.22,1.0,0.0,0.0,1.0
964868624,710,2020-07-28/964868624s710ms.jpg,964868624s710ms.jpg,954,30421,33235,34020,-0.22851562,-0.5996094,1.1601562,-2.240972704873,-5.88015952251,11.377245798730002,430420209.0,-1036541956,-49.19999999999999,1.7719999999999998,181.16,33114,32860,32973,-5.4268293,-14.695122,-21.524391,32715,32464,31341,-0.03,-1.77,-0.22,1.0,0.0,0.0,1.0
964868624,710,2020-07-28/964868624s710ms.jpg,964868624s710ms.jpg,944,30210,33142,33606,-0.18310547,-0.39746094,1.2631836,-1.7956512573755,-3.897760327251,12.387599450939998,430420222.0,-1036541968,-49.19999999999999,1.803,183.28,33126,32875,33121,-6.3414636,-23.719513,-22.256098,32718,32471,31338,-0.1,-1.79,-0.22,1.0,0.0,0.0,1.0
964868624,710,2020-07-28/964868624s710ms.jpg,964868624s710ms.jpg,751,30956,32464,33572,0.14794922,-0.38085938,0.8989258,1.4508862183129998,-3.734954638877,8.81545069657,430420543.0,-1036541981,-48.600000000000016,2.199,201.74,32625,32759,33039,0.73170733,-18.719513,8.292683,32721,32438,31342,-0.81,-2.04,-0.22,1.0,0.0,0.0,1.0
964868624,710,2020-07-28/964868624s710ms.jpg,964868624s710ms.jpg,812,30493,31886,33586,0.43017578,-0.3876953,1.125,4.218583312937,-3.801992113745,11.03248125,430420433.0,-1036541992,-48.80000000000001,2.178,197.96,32802,32762,33107,0.5487805,-22.865854,-2.5,32719,32440,31343,-0.67,-2.07,-0.22,1.0,0.0,0.0,1.0
964868624,710,2020-07-28/964868624s710ms.jpg,964868624s710ms.jpg,884,30579,32622,33126,0.07080078,-0.16308594,1.0830078,0.6943184691869999,-1.5993267335010002,10.62067844187,430420306.0,-1036542011,-49.0,2.037,192.08,33041,32657,33154,6.9512196,-25.731707,-17.073172,32714,32445,31345,-0.42,-1.99,-0.22,1.0,0.0,0.0,1.0
964868624,710,2020-07-28/964868624s710ms.jpg,964868624s710ms.jpg,476,31234,32682,33499,0.041503906,-0.34521484,0.7631836,0.4070142797749,-3.385401110686,7.484274450939998,430421124.0,-1036541424,-47.80000000000001,1.056,267.26,32497,32783,32828,-0.73170733,-5.8536587,16.09756,32726,32438,31332,-1.05,-0.05,-0.2,1.0,0.0,0.0,1.0
964868624,710,2020-07-28/964868624s710ms.jpg,964868624s710ms.jpg,158,31786,32766,34185,0.00048828125,-0.6801758000000001,0.49365234,0.0047884033203125,-6.67024600907,4.841075720061,430421171.0,-1036540534,-46.80000000000001,1.123,318.61,32090,32720,32589,3.109756,8.719512,40.914635,32736,32480,31322,-0.74,0.84,-0.19,1.0,0.0,0.0,1.0
964868624,710,2020-07-28/964868624s710ms.jpg,964868624s710ms.jpg,7,30604,33072,32529,-0.14892578,0.12841797,1.0708008,-1.460463000437,1.2593500855004998,10.50096866532,430420998.0,-1036540101,-46.399999999999984,0.902,350.04,32191,32794,32638,-1.402439,5.731707,34.756096,32724,32474,31322,-0.15,0.88,-0.18,1.0,0.0,0.0,1.0
964868624,710,2020-07-28/964868624s710ms.jpg,964868624s710ms.jpg,435,31130,32591,33284,0.0859375,-0.24023438,0.81396484,0.842758984375,-2.355894482627,7.982268298186001,430421130.0,-1036541307,-47.600000000000016,0.986,269.4,32530,32817,32743,-2.804878,-0.6707316999999999,14.085366,32737,32478,31322,-0.98,-0.01,-0.2,1.0,0.0,0.0,1.0
964868624,710,2020-07-28/964868624s710ms.jpg,964868624s710ms.jpg,415,31117,33168,33184,-0.19580078,-0.19140625,0.8203125,-1.920149719187,-1.8770541015625,8.044517578125,430421139.0,-1036541242,-47.600000000000016,0.976,271.83,32435,32828,32713,-3.4756098,1.1585366,19.878048,32728,32448,31331,-0.97,0.03,-0.2,1.0,0.0,0.0,1.0
964868624,710,2020-07-28/964868624s710ms.jpg,964868624s710ms.jpg,302,30906,32935,33153,-0.08203125,-0.17626953,0.92333984,-0.8044517578125,-1.7286135863745,9.054870641936,430421179.0,-1036540942,-47.19999999999999,0.983,293.98,32600,32668,32848,6.280488,-7.0731707,9.817073,32737,32477,31324,-0.89,0.39,-0.19,1.0,0.0,0.0,1.0
964868569,722,2020-07-28/964868569s722ms.jpg,964868569s722ms.jpg,650,30947,31326,33021,0.7036133000000001,-0.111816406,0.9033203000000002,6.900089368444999,-1.0965443578999,8.858546019995,430449912.0,-1036557663,42.200000000000045,2.439,213.8,33133,32419,33185,21.463415,-27.621952,-22.682926,32763,32527,31210,-1.35,-2.02,-0.31,0.0,0.0,0.0,0.0
964868569,722,2020-07-28/964868569s722ms.jpg,964868569s722ms.jpg,660,30068,31617,32665,0.56152344,0.06201172,1.3325195,5.506663842876001,0.608127233938,13.067552354675,430449888.0,-1036557699,42.200000000000045,2.418,214.67,33223,32412,33334,21.890244,-36.707317,-28.170732,32759,32512,31212,-1.37,-1.98,-0.31,0.0,0.0,0.0,0.0
964868569,722,2020-07-28/964868569s722ms.jpg,964868569s722ms.jpg,609,29787,32135,32746,0.30859375,0.022460938,1.4697266000000002,3.0262708984375,0.2202665576377,14.413094361889998,430450043.0,-1036557504,42.39999999999998,2.484,211.9,32808,32519,33131,15.365853,-24.329268,-2.8658535,32758,32497,31216,-1.31,-2.1,-0.31,0.0,0.0,0.0,0.0
964868569,722,2020-07-28/964868569s722ms.jpg,964868569s722ms.jpg,549,30031,32596,33406,0.083496094,-0.2998047,1.3505858999999998,0.8188169702250999,-2.9400797612550003,13.244723216235002,430450297.0,-1036557245,42.60000000000002,2.5540000000000003,208.12,32656,32574,32929,12.012196,-12.012196,6.402439,32759,32488,31210,-1.2,-2.25,-0.31,0.0,0.0,0.0,0.0
964868569,722,2020-07-28/964868569s722ms.jpg,964868569s722ms.jpg,630,31327,31906,33897,0.42041016,-0.5395508000000001,0.71777344,4.122815295563999,-5.291185852819999,7.038952905375999,430449970.0,-1036557587,42.39999999999998,2.464,212.53,32909,32475,33033,18.04878,-18.353659,-9.02439,32759,32502,31214,-1.32,-2.07,-0.3,0.0,0.0,0.0,0.0
964868569,722,2020-07-28/964868569s722ms.jpg,964868569s722ms.jpg,972,26157,33932,31378,-0.56884766,0.6904296999999999,3.2421875,-5.578489904939,6.770802417504999,31.794998046875,430448190.0,-1036558948,41.0,3.323,200.87,32921,33022,32737,-15.304878,-0.30487806,-9.756098,32742,32581,31196,-1.18,-3.1,-0.31,0.0,0.0,0.0,0.0
964868569,722,2020-07-28/964868569s722ms.jpg,964868569s722ms.jpg,932,34948,33251,35226,-0.23632812,-1.1884766000000002,-1.050293,-2.317587157998,-11.65497404939,-10.29985584845,430448394.0,-1036558816,41.200000000000045,3.221,203.15,33514,32493,32835,16.951220000000003,-6.280488,-45.914635,32737,32552,31205,-1.26,-2.96,-0.31,0.0,0.0,0.0,0.0
964868569,722,2020-07-28/964868569s722ms.jpg,964868569s722ms.jpg,488,29401,32730,32204,0.018066406,0.28710938,1.6582031000000004,0.1771709203998999,2.8155812013770003,16.261417430614998,430450503.0,-1036557005,42.79999999999996,2.5980000000000003,203.63,32558,32688,32959,5.060975599999999,-13.841463,12.378049,32760,32489,31207,-1.04,-2.38,-0.31,0.0,0.0,0.0,0.0
964868569,722,2020-07-28/964868569s722ms.jpg,964868569s722ms.jpg,126,30148,33142,32844,-0.18310547,-0.025390625,1.293457,-1.7956512573755,-0.24899697265625,12.68448008905,430451838.0,-1036555610,44.0,2.67,232.69,33026,32673,32987,5.97561,-15.54878,-16.158537,32765,32489,31177,-2.12,-1.61,-0.31,0.0,0.0,0.0,0.0
964868569,722,2020-07-28/964868569s722ms.jpg,964868569s722ms.jpg,86,30917,32431,32921,0.1640625,-0.06298828,0.91796875,1.608903515625,-0.6177040160619999,9.0021982421875,430452107.0,-1036555358,44.200000000000045,2.642,238.25,33365,32577,33055,11.829268,-19.695122,-36.82927,32763,32480,31181,-2.24,-1.39,-0.31,0.0,0.0,0.0,0.0
964868569,722,2020-07-28/964868569s722ms.jpg,964868569s722ms.jpg,66,30200,32719,32699,0.0234375,0.0454101559999999,1.2680664,0.229843359375,0.4453215063374,12.43548336156,430452202.0,-1036555253,44.399999999999984,2.61,239.09,33232,32604,33026,10.182927,-17.926828,-28.719513,32766,32485,31178,-2.23,-1.34,-0.31,0.0,0.0,0.0,0.0
964868569,722,2020-07-28/964868569s722ms.jpg,964868569s722ms.jpg,46,30322,32928,32880,-0.07861328,-0.04296875,1.2084961,-0.770932922312,-0.4213794921875,11.851298279065,430452289.0,-1036555151,44.399999999999984,2.59,239.83,32891,32601,32991,10.365853,-15.792682999999998,-7.9268293,32773,32514,31171,-2.23,-1.3,-0.31,0.0,0.0,0.0,0.0
964868569,722,2020-07-28/964868569s722ms.jpg,964868569s722ms.jpg,36,30187,32483,32522,0.13867188,0.13183594,1.2744141000000002,1.359906592002,1.292868921001,12.497733033764998,430452327.0,-1036555101,44.399999999999984,2.584,240.19,32800,32585,32960,11.341463,-13.902439,-2.3780490000000003,32771,32506,31173,-2.24,-1.28,-0.31,0.0,0.0,0.0,0.0
964868569,722,2020-07-28/964868569s722ms.jpg,964868569s722ms.jpg,16,31005,31893,33580,0.4267577999999999,-0.38476562,0.875,4.18506437937,-3.773261767373,8.580818749999999,430452414.0,-1036554998,44.600000000000016,2.575,241.74,32989,32579,32967,11.707317,-14.329268,-13.902439,32765,32481,31179,-2.26,-1.21,-0.31,0.0,0.0,0.0,0.0
964868569,722,2020-07-28/964868569s722ms.jpg,964868569s722ms.jpg,468,30267,32464,32812,0.14794922,-0.009765625,1.2353516000000002,1.4508862183129998,-0.09576806640625,12.114660768139998,430450593.0,-1036556948,42.79999999999996,2.5860000000000003,205.14,32502,32720,32805,3.109756,-4.4512196,15.792682999999998,32761,32486,31204,-1.09,-2.34,-0.31,0.0,0.0,0.0,0.0
964868569,722,2020-07-28/964868569s722ms.jpg,964868569s722ms.jpg,438,30430,32928,32824,-0.07861328,-0.015625,1.1557617,-0.770932922312,-0.15322890625,11.334150475305,430450737.0,-1036556858,43.0,2.529,209.2,32251,32781,32803,-0.6097561,-4.3292685,31.09756,32767,32516,31196,-1.23,-2.2,-0.31,0.0,0.0,0.0,0.0
964868569,722,2020-07-28/964868569s722ms.jpg,964868569s722ms.jpg,428,30037,32908,32547,-0.068847656,0.119628906,1.3476562,-0.6751648657123999,1.1731588110248998,13.215992673730002,430450789.0,-1036556826,43.0,2.51,211.02,32271,32781,32863,-0.6097561,-7.987805000000001,29.878048,32763,32495,31200,-1.29,-2.15,-0.3,0.0,0.0,0.0,0.0
964868569,722,2020-07-28/964868569s722ms.jpg,964868569s722ms.jpg,338,29975,33357,33384,-0.28808594,-0.2890625,1.3779297,-2.825157983501,-2.834734765625,13.512874292504998,430451197.0,-1036556536,43.399999999999984,2.488,229.39,31685,32733,32660,2.317073,4.390244,65.60976,32769,32508,31191,-1.88,-1.61,-0.31,0.0,0.0,0.0,0.0
964868569,722,2020-07-28/964868569s722ms.jpg,964868569s722ms.jpg,278,30741,33533,32918,-0.37402344,-0.061523438,1.0039062,-3.667916967876,-0.6033388232626999,9.84495673623,430451402.0,-1036556309,43.600000000000016,2.467,235.55,31838,32710,32601,3.719512200000001,7.987805000000001,56.280487,32765,32502,31188,-2.03,-1.39,-0.31,0.0,0.0,0.0,0.0
964868569,722,2020-07-28/964868569s722ms.jpg,964868569s722ms.jpg,368,30901,32291,33101,0.23242188,-0.1508789,0.92578125,2.279280029502,-1.479616564685,9.0788126953125,430451092.0,-1036556636,43.200000000000045,2.462,224.93,32079,32580,32731,11.646341,0.06097561,41.585365,32763,32489,31199,-1.73,-1.74,-0.31,0.0,0.0,0.0,0.0
964868631,717,2020-07-28/964868631s717ms.jpg,964868631s717ms.jpg,733,31055,32680,33382,0.04248047,-0.28808594,0.85058594,0.4165911011255,-2.825157983501,8.341398608500999,430418845.0,-1036538621,-52.0,0.362,77.87,32639,32880,32752,-6.6463413000000005,-1.2195122,7.439024400000001,32703,32474,31353,0.35,0.07,-0.06,2.0,0.0,1.0,1.0
964868631,717,2020-07-28/964868631s717ms.jpg,964868631s717ms.jpg,723,31137,32606,33955,0.07861328,-0.5678711,0.8105469,0.770932922312,-5.568913122814998,7.948749756884999,430418884.0,-1036538624,-52.0,0.356,75.94,32557,32904,32722,-8.109755999999999,0.6097561,12.439024,32707,32489,31346,0.34,0.08,-0.06,2.0,0.0,1.0,1.0
964868631,717,2020-07-28/964868631s717ms.jpg,964868631s717ms.jpg,713,30942,32579,33777,0.091796875,-0.48095703,0.9057617,0.9002198242187499,-4.7165772582495,8.882487975304999,430418882.0,-1036538657,-52.19999999999999,0.348,76.18,32466,32927,32730,-9.512196,0.12195122,17.987804,32708,32502,31343,0.33,0.08,-0.06,2.0,0.0,1.0,1.0
964868631,717,2020-07-28/964868631s717ms.jpg,964868631s717ms.jpg,703,30784,32560,33340,0.10107422,-0.26757812,0.98291016,0.991199499563,-2.624044970498,9.639055920564,430418879.0,-1036538691,-52.19999999999999,0.3389999999999999,76.29,32404,32939,32729,-10.243902,0.18292683,21.768293,32706,32499,31345,0.32,0.08,-0.06,2.0,0.0,1.0,1.0
964868631,717,2020-07-28/964868631s717ms.jpg,964868631s717ms.jpg,642,30849,32445,33306,0.15722656,-0.25097656,0.9511719,1.541865844624,-2.461239282124,9.327809913135,430418835.0,-1036538883,-52.80000000000001,0.0,106.68,32247,32995,32625,-13.658537,6.52439,31.341463,32706,32509,31348,0.26,-0.09,-0.06,2.0,0.0,1.0,1.0
964868631,717,2020-07-28/964868631s717ms.jpg,964868631s717ms.jpg,622,30357,32382,32964,0.18798828,-0.083984375,1.1914062,1.843535266062,-0.82360537109375,11.68370361123,430418802.0,-1036538948,-53.0,0.0,106.68,32267,33022,32664,-15.304878,4.1463413000000005,30.121952,32698,32482,31353,0.24,-0.08,-0.07,2.0,0.0,1.0,1.0
964868631,717,2020-07-28/964868631s717ms.jpg,964868631s717ms.jpg,611,30231,32476,32637,0.14208984,0.075683594,1.2529297,1.393425329436,0.7422025171000999,12.287043042505,430418795.0,-1036538981,-53.19999999999999,0.0,106.68,32243,33001,32682,-14.02439,3.0487804,31.585365000000003,32695,32477,31356,0.23,-0.08,-0.07,2.0,0.0,1.0,1.0
964868631,717,2020-07-28/964868631s717ms.jpg,964868631s717ms.jpg,551,30442,33706,33235,-0.4584960999999999,-0.2163086,1.1499023000000002,-4.496310779064999,-2.12126273219,11.276689390295,430418767.0,-1036539161,-54.0,0.0,106.68,32324,33036,32681,-16.158537,3.109756,26.646341,32691,32482,31356,0.23,-0.08,-0.08,2.0,0.0,1.0,1.0
964868631,717,2020-07-28/964868631s717ms.jpg,964868631s717ms.jpg,541,30107,33714,33082,-0.46240234,-0.14160156,1.3134766000000002,-4.534617907561,-1.3886369383739998,12.88080529939,430418762.0,-1036539194,-54.0,0.0,106.68,32318,33058,32671,-17.5,3.719512200000001,27.012196000000003,32691,32487,31357,0.23,-0.08,-0.08,2.0,0.0,1.0,1.0
964868631,717,2020-07-28/964868631s717ms.jpg,964868631s717ms.jpg,753,31825,32891,33361,-0.060546875,-0.27783203,0.47460938,-0.59376201171875,-2.7246014769995,4.654328076377,430418767.0,-1036538620,-51.80000000000001,0.366,81.8,32781,32903,32858,-8.04878,-7.6829267,-1.2195122,32701,32465,31352,0.36,0.05,-0.06,2.0,0.0,1.0,1.0
964868631,717,2020-07-28/964868631s717ms.jpg,964868631s717ms.jpg,773,31561,32479,33304,0.140625,-0.25,0.6035156,1.37906015625,-2.4516625,5.9184662587400005,430418696.0,-1036538625,-51.600000000000016,0.361,85.24,32926,32964,32828,-11.768292,-5.8536587,-10.060976,32706,32485,31349,0.35,0.02,-0.06,2.0,0.0,1.0,1.0
964868631,717,2020-07-28/964868631s717ms.jpg,964868631s717ms.jpg,925,30487,32565,33327,0.09863281,-0.26123047,1.1279297,0.9672574461865,-2.5617957886255,11.061211792505,430418241.0,-1036538763,-50.0,0.316,101.08,33163,33037,32937,-16.219513,-12.5,-24.512196,32718,32520,31331,0.3,-0.06,-0.06,2.0,0.0,1.0,1.0
964868631,717,2020-07-28/964868631s717ms.jpg,964868631s717ms.jpg,813,30988,32448,32996,0.15576172,-0.099609375,0.8833008,1.527500671438,-0.97683427734375,8.66222179032,430418525.0,-1036538631,-51.19999999999999,0.349,93.91,33074,33002,32887,-14.085366,-9.45122,-19.085365,32706,32483,31348,0.34,-0.02,-0.06,2.0,0.0,1.0,1.0
964868631,717,2020-07-28/964868631s717ms.jpg,964868631s717ms.jpg,783,30995,32481,32895,0.13964844,-0.05029297,0.8798828000000002,1.3694833741260002,-0.4932055542505,8.628702660619997,430418648.0,-1036538617,-51.399999999999984,0.358,88.01,32966,32976,32890,-12.5,-9.634147,-12.5,32712,32502,31343,0.35,0.01,-0.06,2.0,0.0,1.0,1.0
964868631,717,2020-07-28/964868631s717ms.jpg,964868631s717ms.jpg,175,31302,33170,33299,-0.19677734,-0.2475586,0.72998047,-1.929726501311,-2.42772054469,7.158662976125499,430418335.0,-1036540175,-58.600000000000016,0.483,123.46,32316,32643,32737,7.804877999999999,-0.30487806,27.134146,32692,32491,31357,0.4,-0.26,-0.17,2.0,0.0,1.0,1.0
964868631,717,2020-07-28/964868631s717ms.jpg,964868631s717ms.jpg,115,30053,33003,33090,-0.115234375,-0.14550781,1.3398438,-1.13006318359375,-1.4269441649364998,13.139379201269998,430418404.0,-1036540288,-59.19999999999999,0.547,133.98,32324,32711,32744,3.6585367,-0.73170733,26.646341,32694,32492,31352,0.39,-0.37,-0.21,2.0,0.0,1.0,1.0
964868631,717,2020-07-28/964868631s717ms.jpg,964868631s717ms.jpg,61,30715,32640,33602,0.06201172,-0.3955078,1.0166016,0.608127233938,-3.87860656687,9.96945608064,430418419.0,-1036540355,-59.80000000000001,0.6779999999999999,143.86,32343,32854,32571,-5.060975599999999,9.817073,25.487804,32701,32516,31345,0.39,-0.54,-0.26,2.0,0.0,1.0,1.0
964868631,717,2020-07-28/964868631s717ms.jpg,964868631s717ms.jpg,40,30721,31943,33267,0.40234375,-0.2319336,1.0136719,3.9456443359375,-2.27449163844,9.940725538135,430418427.0,-1036540386,-60.0,0.738,146.09,32384,32871,32525,-6.097561,12.621951,22.987804,32693,32497,31352,0.41,-0.61,-0.3,2.0,0.0,1.0,1.0
964868631,717,2020-07-28/964868631s717ms.jpg,964868631s717ms.jpg,20,30745,32003,34168,0.37304688,-0.671875,1.0019531,3.658340185752,-6.58884296875,9.825803368115,430418425.0,-1036540414,-60.19999999999999,0.855,145.75,32518,32945,32601,-10.609756,7.987805000000001,14.817073,32696,32513,31346,0.48,-0.7,-0.3,2.0,0.0,1.0,1.0
964868631,717,2020-07-28/964868631s717ms.jpg,964868631s717ms.jpg,432,32034,33582,33571,-0.39794922,-0.3803710999999999,0.3725585999999999,-3.902548718313,-3.730166247815,3.65355179469,430418626.0,-1036539501,-55.399999999999984,0.0,106.68,32763,32913,32962,-8.658536999999999,-14.02439,-0.12195122,32685,32507,31360,0.25,-0.09,-0.11,2.0,0.0,1.0,1.0
964868647,700,2020-07-28/964868647s700ms.jpg,964868647s700ms.jpg,725,30568,32714,33083,0.025878906,-0.14208984,1.0883789,0.2537853735249,-1.393425329436,10.673350939685,430453752.0,-1036521189,-75.80000000000003,2.954,352.35,32669,32676,32523,5.792683,12.743902,5.609756,32710,32515,31312,-0.39,2.92,-0.36,2.0,0.0,1.0,1.0
964868647,700,2020-07-28/964868647s700ms.jpg,964868647s700ms.jpg,575,30458,33359,32632,-0.2890625,0.078125,1.1420898000000002,-2.834734765625,0.7661445312499999,11.20007493717,430453619.0,-1036520906,-75.19999999999997,3.131,347.47,33192,32866,32860,-5.792683,-7.804877999999999,-26.280487,32718,32541,31310,-0.67,3.05,-0.35,2.0,0.0,1.0,1.0
964868647,700,2020-07-28/964868647s700ms.jpg,964868647s700ms.jpg,595,29706,33423,32527,-0.3203125,0.12939453,1.5092773000000002,-3.141192578125,1.2689268676245,14.800954234045,430453656.0,-1036520943,-75.19999999999997,3.1210000000000004,348.32,33151,32869,32791,-5.97561,-3.597561,-23.780487,32713,32525,31314,-0.63,3.05,-0.35,2.0,0.0,1.0,1.0
964868647,700,2020-07-28/964868647s700ms.jpg,964868647s700ms.jpg,565,30661,33338,32682,-0.2788085999999999,0.053710938,1.0429688,-2.73417835719,0.5267243701377,10.22802998252,430453598.0,-1036520884,-75.0,3.132,347.23,33174,32824,32898,-3.2317073,-10.121951,-25.182926,32722,32553,31307,-0.69,3.05,-0.35,2.0,0.0,1.0,1.0
964868647,700,2020-07-28/964868647s700ms.jpg,964868647s700ms.jpg,988,31623,32883,33068,-0.056640625,-0.13476562,0.5732421999999999,-0.55545478515625,-1.321599267373,5.621585620630001,430453500.0,-1036522105,-77.60000000000002,2.388,332.17,32020,32599,32666,10.487804,4.02439,45.182926,32710,32489,31340,-1.11,2.11,-0.37,2.0,0.0,1.0,1.0
964868647,700,2020-07-28/964868647s700ms.jpg,964868647s700ms.jpg,968,32285,32728,33801,0.019042969,-0.49267578,0.25,0.18674773194385,-4.831498937937,2.4516625,430453511.0,-1036521981,-77.60000000000002,2.184,338.22,32008,32487,32667,17.317073999999998,3.9634147,45.914635,32715,32506,31332,-0.81,2.02,-0.39,2.0,0.0,1.0,1.0
964868647,700,2020-07-28/964868647s700ms.jpg,964868647s700ms.jpg,908,29944,33122,32946,-0.17333984,-0.07519531,1.3930664,-1.699883141936,-0.7374140868115,13.661314611559998,430453571.0,-1036521749,-77.0,2.215,342.57,32122,32508,32636,16.036585000000002,5.8536587,38.963413,32718,32523,31324,-0.66,2.11,-0.39,2.0,0.0,1.0,1.0
964868647,700,2020-07-28/964868647s700ms.jpg,964868647s700ms.jpg,888,29402,33142,33003,-0.18310547,-0.103027344,1.6577148000000002,-1.7956512573755,-1.0103531030375998,16.25662884342,430453593.0,-1036521683,-76.80000000000003,2.246,343.27,32124,32585,32646,11.341463,5.243901999999999,38.841465,32720,32535,31318,-0.64,2.15,-0.39,2.0,0.0,1.0,1.0
964868647,700,2020-07-28/964868647s700ms.jpg,964868647s700ms.jpg,868,30052,32841,32664,-0.036132812,0.0625,1.340332,-0.3543418407998,0.612915625,13.1441668078,430453650.0,-1036521604,-76.80000000000003,2.305,344.49,32121,32535,32655,14.390244,4.6951220000000005,39.02439,32713,32507,31324,-0.61,2.22,-0.38,2.0,0.0,1.0,1.0
964868647,700,2020-07-28/964868647s700ms.jpg,964868647s700ms.jpg,838,30988,33029,33692,-0.12792969,-0.43945312,0.8833008,-1.2545616944385,-4.309562939248,8.66222179032,430453704.0,-1036521489,-76.39999999999998,2.4730000000000003,346.36,32273,32535,32566,14.390244,10.121951,29.756098,32718,32524,31316,-0.58,2.4,-0.38,2.0,0.0,1.0,1.0
964868647,700,2020-07-28/964868647s700ms.jpg,964868647s700ms.jpg,827,30788,33090,33784,-0.15771484,-0.484375,0.98095703,-1.5466542356859998,-4.75009609375,9.6199022582495,430453710.0,-1036521464,-76.39999999999998,2.501,347.13,32298,32609,32554,9.878049,10.853659,28.231707,32723,32542,31311,-0.55,2.43,-0.38,2.0,0.0,1.0,1.0
964868647,700,2020-07-28/964868647s700ms.jpg,964868647s700ms.jpg,515,31369,32529,33458,0.11621094,-0.3251953,0.6972656,1.139640014751,-3.189076488745,6.8378396962400005,430453501.0,-1036520771,-74.80000000000003,3.152,346.1,33031,32780,32872,-0.5487805,-8.536586,-16.463414999999998,32716,32523,31318,-0.75,3.06,-0.34,2.0,0.0,1.0,1.0
964868647,700,2020-07-28/964868647s700ms.jpg,964868647s700ms.jpg,191,30656,33135,33283,-0.1796875,-0.2397461,1.0454101999999998,-1.762132421875,-2.351106091565,10.25197193783,430452450.0,-1036520035,-73.0,2.869,346.11,32052,32825,32421,-3.292683,18.963415,43.23171,32707,32541,31307,-0.68,2.78,-0.3,2.0,0.0,1.0,1.0
964868647,700,2020-07-28/964868647s700ms.jpg,964868647s700ms.jpg,181,30285,33093,33044,-0.15917969,-0.123046875,1.2265625,-1.5610195069385,-1.20667763671875,12.028469140625,430452461.0,-1036519999,-73.0,2.907,346.91,32088,32856,32411,-5.1829267,19.573172,41.036587,32708,32546,31304,-0.65,2.83,-0.3,2.0,0.0,1.0,1.0
964868647,700,2020-07-28/964868647s700ms.jpg,964868647s700ms.jpg,108,30617,33085,33267,-0.15527344,-0.2319336,1.0644531000000002,-1.522712280376,-2.27449163844,10.438718993114998,430452413.0,-1036519809,-72.80000000000003,3.122,349.14,32262,32765,32407,0.36585367,19.817074,30.426828000000004,32706,32567,31297,-0.58,3.06,-0.29,2.0,0.0,1.0,1.0
964868647,700,2020-07-28/964868647s700ms.jpg,964868647s700ms.jpg,221,30852,32685,32951,0.040039062,-0.07763672,0.94970703,0.3926490673623,-0.761356140188,9.3134444457495,430452503.0,-1036520112,-73.19999999999997,2.806,343.41,31914,32741,32468,1.8292683,16.09756,51.646343,32716,32569,31301,-0.8,2.68,-0.3,2.0,0.0,1.0,1.0
964868647,700,2020-07-28/964868647s700ms.jpg,964868647s700ms.jpg,475,30202,32438,33045,0.16064453,-0.123535156,1.2670898000000002,1.5753846801245002,-1.2114660375873998,12.425906187169998,430453437.0,-1036520669,-74.60000000000002,3.185,345.07,33012,32912,32915,-8.597561,-11.158537,-15.304878,32718,32527,31314,-0.82,3.07,-0.34,2.0,0.0,1.0,1.0
964868647,700,2020-07-28/964868647s700ms.jpg,964868647s700ms.jpg,454,29692,32558,32386,0.10205078,0.19824219,1.5161133,1.0007762816869998,1.9440917725635,14.867992493445,430453393.0,-1036520613,-74.39999999999998,3.173,344.84,32858,32896,32848,-7.621950999999999,-7.0731707,-5.914634,32715,32512,31321,-0.82,3.06,-0.34,2.0,0.0,1.0,1.0
964868647,700,2020-07-28/964868647s700ms.jpg,964868647s700ms.jpg,384,29991,33387,32940,-0.30273438,-0.072265625,1.3701172,-2.968810107627,-0.70868369140625,13.436259839379998,430453034.0,-1036520515,-74.0,3.107,341.84,32281,32864,32780,-5.6707315000000005,-2.9268293,29.268293,32718,32528,31316,-0.96,2.95,-0.33,2.0,0.0,1.0,1.0
964868647,700,2020-07-28/964868647s700ms.jpg,964868647s700ms.jpg,334,31300,33115,32942,-0.16992188,-0.07324219,0.73095703,-1.666364404502,-0.7182605225634999,7.1682397582494985,430452618.0,-1036520424,-73.80000000000003,2.658,340.54,32045,32837,32669,-4.02439,3.8414633,43.658535,32718,32539,31312,-0.88,2.5,-0.31,2.0,0.0,1.0,1.0
964868677,730,2020-07-28/964868677s730ms.jpg,964868677s730ms.jpg,727,34188,32635,33288,0.064453125,-0.2421875,-0.6791991999999999,0.63206923828125,-2.375048046875,-6.660668834680001,430500377.0,-1036462402,-113.39999999999998,1.78,62.38,33397,32937,32618,-10.121951,6.9512196,-38.780487,32670,32647,31239,1.57,0.82,-0.23,3.0,1.0,2.0,3.0
964868677,730,2020-07-28/964868677s730ms.jpg,964868677s730ms.jpg,597,28813,32156,33210,0.29833984,-0.20410156,1.9453125,2.925714391936,-2.001552563374,19.076998828125,430500067.0,-1036462674,-113.60000000000002,1.561,69.55,32898,33094,33059,-19.695122,-19.939024,-8.353659,32680,32648,31256,1.46,0.54,-0.23,3.0,1.0,2.0,3.0
964868677,730,2020-07-28/964868677s730ms.jpg,964868677s730ms.jpg,899,30067,32377,33756,0.19042969,-0.47070312,1.3330078,1.8674773194385,-4.616020751748,13.07234094187,430500745.0,-1036461984,-113.60000000000002,1.934,64.87,32976,32309,32997,28.170732,-16.158537,-13.109756,32661,32650,31242,1.75,0.82,-0.24,3.0,1.0,2.0,3.0
964868677,730,2020-07-28/964868677s730ms.jpg,964868677s730ms.jpg,837,28086,33872,34365,-0.5395508000000001,-0.7680664,2.300293,-5.291185852819999,-7.53215836156,22.55816834845,430500608.0,-1036462140,-113.60000000000002,2.009,66.91,33329,32020,33203,45.792683,-28.719513,-34.634148,32672,32676,31228,1.84,0.78,-0.24,3.0,1.0,2.0,3.0
964868677,730,2020-07-28/964868677s730ms.jpg,964868677s730ms.jpg,827,25583,34454,36321,-0.82373047,-1.7231445,3.522461,-8.078036413625501,-16.898275010925,34.543542165649995,430500592.0,-1036462161,-113.60000000000002,2.002,66.85,33219,31959,33185,49.512196,-27.621952,-27.926828000000004,32667,32659,31233,1.84,0.78,-0.24,3.0,1.0,2.0,3.0
964868677,730,2020-07-28/964868677s730ms.jpg,964868677s730ms.jpg,817,27647,33317,34278,-0.2685547,-0.72558594,2.5146484,-2.633621948755,-7.115567358500999,24.66027673186,430500574.0,-1036462180,-113.60000000000002,1.989,66.5,32918,32001,32972,46.951218,-14.634147,-9.573171,32664,32647,31238,1.82,0.79,-0.24,3.0,1.0,2.0,3.0
964868677,730,2020-07-28/964868677s730ms.jpg,964868677s730ms.jpg,777,23300,33890,30334,-0.54833984,1.2001953,4.637207,-5.3773768919360005,11.769895238745,45.47546602655,430500485.0,-1036462264,-113.60000000000002,1.917,64.44,33193,33318,33203,-33.353657,-28.719513,-26.341463,32665,32636,31235,1.72,0.82,-0.23,3.0,1.0,2.0,3.0
964868677,730,2020-07-28/964868677s730ms.jpg,964868677s730ms.jpg,869,33784,33079,33389,-0.15234375,-0.2915039,-0.4819335999999999,-1.4939818359375,-2.858676720935,-4.72615413844,430500680.0,-1036462050,-113.60000000000002,1.968,65.19,32928,32150,32636,37.865852,5.8536587,-10.182927,32663,32642,31241,1.78,0.82,-0.24,3.0,1.0,2.0,3.0
964868677,730,2020-07-28/964868677s730ms.jpg,964868677s730ms.jpg,189,32633,32600,30828,0.08154297,0.9589844,0.080078125,0.7996633667505001,9.40442436626,0.7852981445312499,430500643.0,-1036463143,-123.2,1.382,67.76,33107,32512,32916,15.792682999999998,-11.219512,-21.09756,32709,32599,31273,1.27,0.52,-0.22,3.0,1.0,2.0,3.0
964868677,730,2020-07-28/964868677s730ms.jpg,964868677s730ms.jpg,149,22842,33009,29942,-0.11816406,1.3916016000000002,4.8608400000000005,-1.158793578999,13.64694983064,47.668556586,430500690.0,-1036463203,-124.2,1.298,67.76,33322,33139,33319,-22.439024,-35.792683000000004,-34.207317,32707,32578,31278,1.2,0.49,-0.22,3.0,1.0,2.0,3.0
964868677,730,2020-07-28/964868677s730ms.jpg,964868677s730ms.jpg,139,29372,33422,29871,-0.31982422,1.4262695,1.6723633000000002,-3.1364041870630004,13.986925792175,16.400281555945,430500706.0,-1036463219,-124.39999999999998,1.293,67.76,33448,32865,32982,-5.731707,-15.243902,-41.890244,32708,32575,31280,1.19,0.48,-0.22,3.0,1.0,2.0,3.0
964868677,730,2020-07-28/964868677s730ms.jpg,964868677s730ms.jpg,19,31686,32939,30301,-0.083984375,1.2163086,0.54248047,-0.82360537109375,11.927912732189998,5.319916101125499,430500782.0,-1036463366,-127.39999999999998,1.039,67.76,33751,32882,33449,-6.768292999999999,-43.719513,-60.365852,32729,32580,31280,0.96,0.39,-0.23,3.0,1.0,2.0,3.0
964868677,730,2020-07-28/964868677s730ms.jpg,964868677s730ms.jpg,351,30002,32432,33261,0.16357422,-0.2290038999999999,1.3647461,1.604115124563,-2.245761095935,13.383587341565,430500522.0,-1036462875,-119.2,1.5759999999999998,80.04,33765,32636,33246,8.231708,-31.341463,-61.219513,32691,32642,31258,1.55,0.27,-0.22,3.0,1.0,2.0,3.0
964868677,730,2020-07-28/964868677s730ms.jpg,964868677s730ms.jpg,259,32320,31958,33361,0.39501953,-0.27783203,0.23291016,3.8738182738745,-2.7246014769995,2.284068420564,430500611.0,-1036463034,-121.39999999999998,1.516,83.77,33075,32441,32776,20.121952,-2.682927,-19.146341,32704,32612,31271,1.5,0.16,-0.22,3.0,1.0,2.0,3.0
964868677,730,2020-07-28/964868677s730ms.jpg,964868677s730ms.jpg,361,30023,33007,35979,-0.1171875,-1.5561523000000002,1.3544922,-1.149216796875,-15.260640952795,13.283030933129996,430500505.0,-1036462861,-119.0,1.5619999999999998,79.62,33787,32317,33164,27.682926,-26.341463,-62.560974,32684,32622,31263,1.53,0.28,-0.22,3.0,1.0,2.0,3.0
964868677,730,2020-07-28/964868677s730ms.jpg,964868677s730ms.jpg,299,31489,32187,33468,0.28320312,-0.33007812,0.6386719,2.777273876748,-3.236960595498,6.263231788134999,430500581.0,-1036462946,-120.39999999999998,1.5519999999999998,82.93,33433,32869,33174,-5.97561,-26.951220000000003,-40.97561,32690,32595,31274,1.54,0.19,-0.22,3.0,1.0,2.0,3.0
964868677,730,2020-07-28/964868677s730ms.jpg,964868677s730ms.jpg,269,29422,32247,33020,0.25390625,-0.111328125,1.6479491999999998,2.4899697265625,-1.0917559570312498,16.16086102218,430500600.0,-1036463014,-121.0,1.518,83.83,33150,32452,33152,19.451220000000003,-25.609756,-23.719513,32697,32599,31274,1.5,0.16,-0.22,3.0,1.0,2.0,3.0
964868677,730,2020-07-28/964868677s730ms.jpg,964868677s730ms.jpg,321,29891,32746,31671,0.010253906,0.5473633000000001,1.4189453,0.1005564672748999,5.367800305945,13.915099926245,430500566.0,-1036462911,-119.8,1.581,81.36,33526,32754,33228,1.0365853,-30.243902,-46.646343,32690,32611,31270,1.56,0.23,-0.22,3.0,1.0,2.0,3.0
964868677,730,2020-07-28/964868677s730ms.jpg,964868677s730ms.jpg,309,31371,32401,32344,0.17871094,0.21875,0.69628906,1.752555639751,2.1452046875,6.828263110249,430500579.0,-1036462920,-120.0,1.57,82.19,33470,32777,33152,-0.36585367,-25.609756,-43.23171,32690,32605,31273,1.55,0.21,-0.22,3.0,1.0,2.0,3.0
964868661,714,2020-07-28/964868661s714ms.jpg,964868661s714ms.jpg,619,31755,32937,33894,-0.08300781,-0.53808594,0.50878906,-0.8140285399364999,-5.276820483501,4.989516235249,430485536.0,-1036503508,-133.2,5.922000000000001,42.22,32403,32610,32770,9.817073,-2.317073,21.829268,32755,32499,31287,3.97,4.38,-0.3,2.0,0.0,1.0,1.0
964868661,714,2020-07-28/964868661s714ms.jpg,964868661s714ms.jpg,751,30032,32321,34965,0.21777344,-1.0610351999999998,1.3500976999999998,2.135627905376,-10.40520084408,13.239935609705,430485796.0,-1036502949,-133.60000000000002,5.27,41.14,32255,33090,32708,-19.451220000000003,1.4634147,30.853659000000004,32749,32458,31292,3.46,3.96,-0.3,2.0,0.0,1.0,1.0
964868661,714,2020-07-28/964868661s714ms.jpg,964868661s714ms.jpg,771,30394,32516,32061,0.122558594,0.3569335999999999,1.1733398000000002,1.2018892358501,3.5003228884400004,11.50653274967,430485820.0,-1036502909,-133.60000000000002,5.101,39.91,32234,32659,32571,6.8292685,9.817073,32.134148,32755,32484,31290,3.27,3.91,-0.3,2.0,0.0,1.0,1.0
964868661,714,2020-07-28/964868661s714ms.jpg,964868661s714ms.jpg,982,30518,32901,35218,-0.06542969,-1.1845703,1.112793,-0.6416460694385,-11.616666332495,10.91277147345,430485874.0,-1036502258,-134.2,4.262,38.49,32088,33045,32681,-16.707317,3.109756,41.036587,32747,32448,31301,2.65,3.33,-0.3,2.0,0.0,1.0,1.0
964868661,714,2020-07-28/964868661s714ms.jpg,964868661s714ms.jpg,942,31798,33337,31043,-0.2783203,0.8540039,0.48779297,-2.729389769995,8.374917345935,4.783614929250501,430485832.0,-1036502396,-134.2,4.38,39.4,32403,33002,32848,-14.085366,-7.0731707,21.829268,32752,32474,31296,2.77,3.38,-0.3,2.0,0.0,1.0,1.0
964868661,714,2020-07-28/964868661s714ms.jpg,964868661s714ms.jpg,922,34444,32943,34531,-0.0859375,-0.8491211,-0.8041991999999999,-0.842758984375,-8.327033435314997,-7.886500084680001,430485891.0,-1036502440,-134.0,4.51,38.58,32468,32669,32780,6.219512,-2.9268293,17.865854000000002,32747,32461,31301,2.81,3.52,-0.3,2.0,0.0,1.0,1.0
964868661,714,2020-07-28/964868661s714ms.jpg,964868661s714ms.jpg,912,33906,32830,34789,-0.030761719,-0.97509766,-0.5415039,-0.30166941163135,-9.562441467439,-5.310339220935,430485907.0,-1036502468,-134.0,4.541,38.38,32487,32627,32733,8.780488,-0.06097561,16.707317,32744,32449,31303,2.81,3.55,-0.3,2.0,0.0,1.0,1.0
964868661,714,2020-07-28/964868661s714ms.jpg,964868661s714ms.jpg,761,30630,32733,34166,0.016601562,-0.67089844,1.0581055,0.1628057079873,-6.5792661866260005,10.376470301575,430485817.0,-1036502915,-133.60000000000002,5.2410000000000005,40.85,32238,32921,32422,-9.146341,18.90244,31.890244,32754,32479,31289,3.42,3.96,-0.3,2.0,0.0,1.0,1.0
964868661,714,2020-07-28/964868661s714ms.jpg,964868661s714ms.jpg,892,31519,32644,33531,0.060058594,-0.36083984,0.62402344,0.5889736108500999,-3.538630016936,6.119579467875999,430485885.0,-1036502547,-134.0,4.602,38.39,32492,32641,32824,7.9268293,-5.609756,16.40244,32747,32460,31300,2.85,3.6,-0.3,2.0,0.0,1.0,1.0
964868661,714,2020-07-28/964868661s714ms.jpg,964868661s714ms.jpg,871,29736,32821,32974,-0.026367188,-0.08886719,1.4946289,-0.2585737842002,-0.8714894288134999,14.657302502185,430485863.0,-1036502620,-134.0,4.669,38.59,32441,32717,32797,3.292683,-3.9634147,19.512196,32753,32481,31294,2.91,3.64,-0.3,2.0,0.0,1.0,1.0
964868661,714,2020-07-28/964868661s714ms.jpg,964868661s714ms.jpg,831,31423,32268,33063,0.24365234,-0.13232422,0.67089844,2.389413220061,-1.297657312063,6.5792661866260005,430485841.0,-1036502760,-133.8,4.801,38.56,32273,32733,32816,2.317073,-5.121951,29.756098,32756,32484,31293,2.99,3.75,-0.3,2.0,0.0,1.0,1.0
964868661,714,2020-07-28/964868661s714ms.jpg,964868661s714ms.jpg,811,30321,32865,33430,-0.047851562,-0.31152344,1.2089843999999998,-0.4692635204873,-3.055001342876,11.856086866260002,430485835.0,-1036502822,-133.8,4.8580000000000005,38.71,32240,32713,32678,3.5365853,3.292683,31.768293,32752,32474,31294,3.03,3.79,-0.3,2.0,0.0,1.0,1.0
964868661,714,2020-07-28/964868661s714ms.jpg,964868661s714ms.jpg,164,30835,33220,32957,-0.2211913999999999,-0.080566406,0.9580078000000002,-2.16914664281,-0.7900865453998999,9.39484719187,430483721.0,-1036506108,-132.2,5.843999999999999,28.9,32421,32613,32476,9.634147,15.609756,20.731707,32743,32553,31266,2.82,5.11,-0.31,2.0,0.0,1.0,1.0
964868661,714,2020-07-28/964868661s714ms.jpg,964868661s714ms.jpg,144,31143,33094,33247,-0.15966797,-0.22216797,0.8076171999999999,-1.5658078980005,-2.1787235230005,7.920019214380001,430483632.0,-1036506198,-132.0,5.879,28.32,32346,32559,32440,12.926829,17.804878,25.304878,32735,32527,31270,2.78,5.17,-0.31,2.0,0.0,1.0,1.0
964868661,714,2020-07-28/964868661s714ms.jpg,964868661s714ms.jpg,104,30487,32730,33015,0.018066406,-0.10888672,1.1279297,0.1771709203998999,-1.067813952688,11.061211792505,430483539.0,-1036506364,-131.8,5.952999999999999,24.31,32494,32531,32506,14.634147,13.780488,16.280487,32732,32528,31269,2.45,5.42,-0.31,2.0,0.0,1.0,1.0
964868661,714,2020-07-28/964868661s714ms.jpg,964868661s714ms.jpg,41,30309,32750,33728,0.008300781,-0.45703125,1.2148438,0.0814028539936499,-4.4819455078125,11.91354795127,430483304.0,-1036506565,-131.8,5.973,23.25,32458,32602,32494,10.304878,14.512196,18.475609,32731,32532,31263,2.35,5.48,-0.3,2.0,0.0,1.0,1.0
964868661,714,2020-07-28/964868661s714ms.jpg,964868661s714ms.jpg,11,30447,33391,32050,-0.3046875,0.3623047,1.1474608999999998,-2.987963671875,3.552995386255,11.252747434985,430483145.0,-1036506685,-131.60000000000002,5.974,22.86,32362,32742,32488,1.7682927,14.878049,24.329268,32742,32574,31249,2.32,5.5,-0.31,2.0,0.0,1.0,1.0
964868661,714,2020-07-28/964868661s714ms.jpg,964868661s714ms.jpg,264,31037,33029,32917,-0.12792969,-0.0610351559999999,0.859375,-1.2545616944385,-0.5985504125873999,8.427589843749999,430484167.0,-1036505534,-132.39999999999998,5.875,33.16,32342,32847,32542,-4.634146,11.585366,25.54878,32742,32535,31272,3.21,4.91,-0.3,2.0,0.0,1.0,1.0
964868661,714,2020-07-28/964868661s714ms.jpg,964868661s714ms.jpg,304,30524,33104,32804,-0.16455078,-0.005859375,1.1098633,-1.613691906687,-0.05746083984375,10.884040930945,430484397.0,-1036505283,-132.39999999999998,5.949,33.55,32177,32932,32489,-9.817073,14.817073,35.609756,32742,32524,31277,3.28,4.95,-0.31,2.0,0.0,1.0,1.0
964868661,714,2020-07-28/964868661s714ms.jpg,964868661s714ms.jpg,324,30847,33227,33177,-0.22460938,-0.18798828,0.95214844,-2.202665576377,-1.843535266062,9.337386499126,430484493.0,-1036505180,-132.39999999999998,5.975,33.64,32126,32946,32462,-10.670732,16.463414999999998,38.719513,32748,32536,31272,3.31,4.97,-0.31,2.0,0.0,1.0,1.0
964868679,698,2020-07-28/964868679s698ms.jpg,964868679s698ms.jpg,686,28872,33798,34645,-0.50341797,-0.90478516,1.9165039,-4.9368438355005,-8.872911389314,18.794482970935,430498121.0,-1036460332,-85.60000000000002,0.672,56.27,31486,32779,32660,-0.4878049,4.390244,77.743904,32769,32455,31269,0.55,0.37,-0.22,2.0,0.0,1.0,1.0
964868679,698,2020-07-28/964868679s698ms.jpg,964868679s698ms.jpg,656,33539,32181,32406,0.2861328,0.18847656,-0.3623047,2.8060042231200004,1.848323657124,-3.552995386255,430498225.0,-1036460292,-86.19999999999997,0.745,56.27,31551,32330,32234,26.890244,30.365854,73.78049,32760,32422,31277,0.61,0.41,-0.22,2.0,0.0,1.0,1.0
964868679,698,2020-07-28/964868679s698ms.jpg,964868679s698ms.jpg,646,34239,32359,34112,0.19921875,-0.64453125,-0.70410156,1.9536685546875,-6.320692382812499,-6.904877563374,430498265.0,-1036460279,-86.39999999999998,0.778,56.27,31586,32431,32217,20.731707,31.40244,71.64634000000001,32761,32430,31276,0.64,0.43,-0.22,2.0,0.0,1.0,1.0
964868679,698,2020-07-28/964868679s698ms.jpg,964868679s698ms.jpg,526,37949,32557,36256,0.10253906,-1.6914062,-2.515625,1.005564672749,-16.58702861123,-24.66985390625,430498665.0,-1036460193,-89.19999999999997,1.142,56.27,31606,32560,32400,12.865853,20.243902,70.42683000000001,32756,32457,31272,0.94,0.63,-0.23,2.0,0.0,1.0,1.0
964868679,698,2020-07-28/964868679s698ms.jpg,964868679s698ms.jpg,556,23039,34196,33103,-0.6977539,-0.15185547,4.7646484,-6.842628283435,-1.4891934448754998,46.72523923186,430498560.0,-1036460189,-88.39999999999998,1.019,56.27,31693,33646,32898,-53.353657,-10.121951,65.12195,32767,32489,31259,0.84,0.56,-0.23,2.0,0.0,1.0,1.0
964868679,698,2020-07-28/964868679s698ms.jpg,964868679s698ms.jpg,997,30842,32748,33242,0.009277344,-0.21972656,0.95458984,0.0909796655376,-2.154781469624,9.361328454436,430497479.0,-1036460191,-80.60000000000002,1.051,56.27,32039,32392,32886,23.109756,-9.390244,44.02439,32763,32433,31287,0.87,0.58,-0.12,2.0,0.0,1.0,1.0
964868679,698,2020-07-28/964868679s698ms.jpg,964868679s698ms.jpg,977,29868,33064,32265,-0.14501953,0.25732422,1.4301758,-1.4221557738745,2.523488562063,14.02523350907,430497462.0,-1036460222,-80.60000000000002,1.0590000000000002,56.27,32006,32458,32985,19.085365,-15.426829,46.036587,32756,32399,31293,0.88,0.58,-0.13,2.0,0.0,1.0,1.0
964868679,698,2020-07-28/964868679s698ms.jpg,964868679s698ms.jpg,966,29092,32937,32112,-0.08300781,0.33203125,1.809082,-0.8140285399364999,3.2561142578125,17.7410339953,430497455.0,-1036460232,-80.60000000000002,1.065,56.27,31893,32514,32913,15.670732,-11.036586,52.92683,32753,32387,31295,0.88,0.59,-0.13,2.0,0.0,1.0,1.0
964868679,698,2020-07-28/964868679s698ms.jpg,964868679s698ms.jpg,906,29793,34007,33297,-0.60546875,-0.24658203,1.4667968999999998,-5.9376201171875,-2.4181436644995,14.384363819385,430497416.0,-1036460295,-80.60000000000002,1.074,56.27,32049,32875,33239,-6.3414636,-30.914635,43.414635,32760,32411,31288,0.89,0.59,-0.14,2.0,0.0,1.0,1.0
964868679,698,2020-07-28/964868679s698ms.jpg,964868679s698ms.jpg,806,31011,30721,37294,0.99902344,-2.1982422,0.8720703000000002,9.797073217876,-21.55739187063,8.552088207494997,430497740.0,-1036460310,-82.60000000000002,1.006,56.27,31718,31584,32528,72.37805,12.439024,63.59756,32763,32408,31284,0.83,0.55,-0.17,2.0,0.0,1.0,1.0
964868679,698,2020-07-28/964868679s698ms.jpg,964868679s698ms.jpg,796,30342,31548,39526,0.59521484,-3.288086,1.1987305,5.837063610686001,-32.2451085719,11.755530457824998,430497778.0,-1036460306,-82.80000000000003,1.005,56.27,31575,31794,32644,59.57317,5.365854,72.31707,32768,32424,31277,0.83,0.55,-0.17,2.0,0.0,1.0,1.0
964868679,698,2020-07-28/964868679s698ms.jpg,964868679s698ms.jpg,756,31801,34422,28868,-0.80810547,1.9160156000000004,0.48632812,-7.924807507375499,18.78969438374,4.769249657998,430497902.0,-1036460362,-83.80000000000003,0.679,56.27,31567,33221,32489,-27.439024,14.817073,72.80488000000001,32765,32407,31275,0.56,0.37,-0.19,2.0,0.0,1.0,1.0
964868679,698,2020-07-28/964868679s698ms.jpg,964868679s698ms.jpg,486,32420,33082,31944,-0.1538086,0.4140625,0.18408203,-1.50834710719,4.060566015625,1.8052280394995,430499120.0,-1036460151,-92.2,1.45,56.27,32064,32379,32226,23.90244,30.853659000000004,42.5,32756,32469,31270,1.2,0.8,-0.23,2.0,0.0,1.0,1.0
964868679,698,2020-07-28/964868679s698ms.jpg,964868679s698ms.jpg,196,33595,31800,32401,0.47216797,0.19091797,-0.38964844,4.6303860230005,1.8722657105005,-3.821145874126,430499935.0,-1036460210,-99.39999999999998,1.399,56.27,32292,32608,32371,9.939024,22.012196,28.59756,32768,32506,31251,1.16,0.77,-0.24,2.0,0.0,1.0,1.0
964868679,698,2020-07-28/964868679s698ms.jpg,964868679s698ms.jpg,186,35828,31582,33675,0.5786133000000001,-0.43115234,-1.4799805,5.674258118445,-4.228160095061,-14.513650770325,430499977.0,-1036460217,-99.8,1.395,56.27,32182,32719,32244,3.1707318,29.756098,35.30488,32767,32501,31252,1.15,0.77,-0.24,2.0,0.0,1.0,1.0
964868679,698,2020-07-28/964868679s698ms.jpg,964868679s698ms.jpg,145,27203,33019,30980,-0.123046875,0.8847655999999999,2.7314453,-1.20667763671875,8.67658657124,26.786328051245,430500141.0,-1036460256,-100.8,1.297,56.27,32130,33116,32708,-21.036585,1.4634147,38.47561,32763,32495,31254,1.07,0.72,-0.24,2.0,0.0,1.0,1.0
964868679,698,2020-07-28/964868679s698ms.jpg,964868679s698ms.jpg,55,24243,34400,32692,-0.7973633000000001,0.048828125,4.176758,-7.819462805944999,0.47884033203125,40.9600038407,430500582.0,-1036460358,-103.60000000000002,1.146,56.27,32222,32782,32232,-0.6707316999999999,30.487804,32.865852000000004,32763,32517,31244,0.95,0.63,-0.24,2.0,0.0,1.0,1.0
964868679,698,2020-07-28/964868679s698ms.jpg,964868679s698ms.jpg,226,28530,32962,34446,-0.095214844,-0.8076171999999999,2.083496,-0.9337386499126,-7.920019214380001,20.4321160484,430499810.0,-1036460212,-98.8,1.358,56.27,32614,32664,33338,6.52439,-36.951218,8.963414,32755,32473,31265,1.12,0.75,-0.24,2.0,0.0,1.0,1.0
964868679,698,2020-07-28/964868679s698ms.jpg,964868679s698ms.jpg,376,32978,32609,33431,0.07714844,-0.31201172,-0.088378906,0.7565677491259999,-3.059789733938,-0.8667009985248999,430499417.0,-1036460265,-94.60000000000002,1.195,56.27,33496,32450,32746,19.573172,-0.85365856,-44.817074,32757,32494,31261,0.99,0.66,-0.23,2.0,0.0,1.0,1.0
964868679,698,2020-07-28/964868679s698ms.jpg,964868679s698ms.jpg,306,31953,31905,34485,0.42089844,-0.82666016,0.41210938,4.127603686625998,-8.106766858063999,4.041412451377,430499547.0,-1036460218,-96.60000000000002,1.149,56.27,33176,32617,32771,9.390244,-2.3780490000000003,-25.304878,32759,32491,31263,0.95,0.63,-0.23,2.0,0.0,1.0,1.0
964868681,700,2020-07-28/964868681s700ms.jpg,964868681s700ms.jpg,676,30139,33236,31424,-0.2290038999999999,0.66796875,1.2978516000000002,-2.245761095935,6.5505357421875,12.72757639314,430500169.0,-1036458913,-81.60000000000002,1.338,56.27,32255,32905,32695,-8.170732000000001,2.2560976000000004,30.853659000000004,32741,32455,31322,1.11,0.74,-0.15,3.0,1.0,2.0,3.0
964868681,700,2020-07-28/964868681s700ms.jpg,964868681s700ms.jpg,726,32090,33353,34254,-0.2861328,-0.7138671999999999,0.34521484,-2.8060042231200004,-7.000645776880001,3.385401110686,430500263.0,-1036458895,-81.60000000000002,1.3130000000000002,56.27,31959,32450,32750,19.573172,-1.097561,48.902440000000006,32735,32445,31325,1.09,0.72,-0.16,3.0,1.0,2.0,3.0
964868681,700,2020-07-28/964868681s700ms.jpg,964868681s700ms.jpg,696,28270,32954,31618,-0.091308594,0.5732421999999999,2.2104492,-0.8954314233501001,5.621585620630001,21.677101647179995,430500204.0,-1036458907,-81.60000000000002,1.325,56.27,32147,32985,32788,-13.04878,-3.4146342000000005,37.439026,32733,32429,31332,1.1,0.73,-0.16,3.0,1.0,2.0,3.0
964868681,700,2020-07-28/964868681s700ms.jpg,964868681s700ms.jpg,716,28361,33523,33057,-0.36914062,-0.12939453,2.1660156,-3.620032861123,-1.2689268676245,21.24135688374,430500238.0,-1036458895,-81.60000000000002,1.3159999999999998,56.27,32009,32621,32708,9.146341,1.4634147,45.853657,32736,32451,31325,1.09,0.73,-0.16,3.0,1.0,2.0,3.0
964868681,700,2020-07-28/964868681s700ms.jpg,964868681s700ms.jpg,595,32055,33044,32546,-0.1352539,0.12011719,0.3623047,-1.326387658435,1.1779472413135,3.552995386255,430500015.0,-1036458908,-81.39999999999998,1.379,56.27,32595,32701,32663,4.268293,4.207317,10.121951,32741,32478,31324,1.14,0.76,-0.15,3.0,1.0,2.0,3.0
964868681,700,2020-07-28/964868681s700ms.jpg,964868681s700ms.jpg,585,32665,33214,33091,-0.21826172,-0.1459961,0.064453125,-2.140416296438,-1.4317326540649995,0.63206923828125,430499991.0,-1036458918,-81.39999999999998,1.38,56.27,32634,32674,32578,5.914634,9.390244,7.743902,32737,32462,31327,1.14,0.76,-0.15,3.0,1.0,2.0,3.0
964868681,700,2020-07-28/964868681s700ms.jpg,964868681s700ms.jpg,560,31245,33196,34769,-0.20947266,-0.96533203,0.7578125,-2.054225061189,-9.4666733519995,7.431601953125,430499946.0,-1036458933,-81.39999999999998,1.399,56.27,32689,32721,32744,3.0487804,-0.73170733,4.390244,32730,32438,31332,1.16,0.77,-0.15,3.0,1.0,2.0,3.0
964868681,700,2020-07-28/964868681s700ms.jpg,964868681s700ms.jpg,550,29281,33084,33554,-0.15478516,-0.3720703,1.7167968999999996,-1.517923889314,-3.648763207495,16.836026319385,430499927.0,-1036458937,-81.39999999999998,1.412,56.27,32739,32741,32879,1.8292683,-8.963414,1.3414634,32731,32446,31331,1.17,0.78,-0.15,3.0,1.0,2.0,3.0
964868681,700,2020-07-28/964868681s700ms.jpg,964868681s700ms.jpg,540,29076,33015,32663,-0.12109375,0.06298828,1.8168945,-1.1875240234375,0.6177040160619999,17.817648448425,430499909.0,-1036458944,-81.39999999999998,1.425,56.27,32831,32711,32830,3.6585367,-5.97561,-4.268293,32730,32441,31331,1.18,0.79,-0.15,3.0,1.0,2.0,3.0
964868681,700,2020-07-28/964868681s700ms.jpg,964868681s700ms.jpg,989,28622,33071,35639,-0.1484375,-1.3901367,2.0385742,-1.455674609375,-13.632584069055,19.99158367843,430500806.0,-1036458847,-82.0,1.169,56.27,33406,33152,33933,-23.231707,-73.231705,-39.32927,32725,32456,31338,0.97,0.64,-0.16,3.0,1.0,2.0,3.0
964868681,700,2020-07-28/964868681s700ms.jpg,964868681s700ms.jpg,958,30978,32963,30633,-0.095703125,1.0541992,0.8881836,-0.93852705078125,10.33816258468,8.71010570094,430500749.0,-1036458858,-82.0,1.18,56.27,33069,32726,33361,2.7439024,-38.353657,-18.780487,32734,32478,31329,0.98,0.65,-0.16,3.0,1.0,2.0,3.0
964868681,700,2020-07-28/964868681s700ms.jpg,964868681s700ms.jpg,918,30896,32331,34290,0.21289062,-0.7314453000000001,0.92822266,2.0877437986230003,-7.173028051244999,9.102754748689,430500663.0,-1036458855,-82.0,1.204,56.27,32802,32358,33331,25.182926,-36.52439,-2.5,32724,32433,31341,1.0,0.66,-0.16,3.0,1.0,2.0,3.0
964868681,700,2020-07-28/964868681s700ms.jpg,964868681s700ms.jpg,818,31934,32440,31277,0.15966797,0.7397461,0.42138672,1.5658078980005,7.2544310915649985,4.132392077687999,430500460.0,-1036458876,-81.80000000000003,1.289,56.27,32207,32624,32952,8.963414,-13.414634,33.780487,32731,32419,31333,1.07,0.71,-0.16,3.0,1.0,2.0,3.0
964868681,700,2020-07-28/964868681s700ms.jpg,964868681s700ms.jpg,480,28143,34057,31698,-0.6298828000000001,0.5341796999999999,2.272461,-6.177040160619999,5.238513355005,22.28522966565,430499765.0,-1036458982,-81.19999999999997,1.391,56.27,32792,32808,33051,-2.2560976000000004,-19.451220000000003,-1.8902439,32735,32461,31325,1.15,0.77,-0.15,3.0,1.0,2.0,3.0
