utc_s (s),utc_ms (ms)_x,file_path,filename,utc_ms (ms)_y,accel_x (counts),accel_y (counts),accel_z (counts),calibrated_accel_x (g),calibrated_accel_y (g),calibrated_accel_z (g),calibrated_accel_x (m/s^2),calibrated_accel_y (m/s^2),calibrated_accel_z (m/s^2),position_lat (semicircles),position_long (semicircles),enhanced_altitude (m),enhanced_speed (m/s),heading (degrees),gyro_x (counts),gyro_y (counts),gyro_z (counts),calibrated_gyro_x (deg/s),calibrated_gyro_y (deg/s),calibrated_gyro_z (deg/s),mag_x (counts),mag_y (counts),mag_z (counts),velocity (m/s)1,velocity (m/s)2,velocity (m/s)3,tsm1_original,tsm1_k2,tsm1_k3,tsm1_k4
964868685,704,2020-07-28/964868685s704ms.jpg,964868685s704ms.jpg,723,32572,32736,33131,0.015136719,-0.16552734,0.10986328,0.1484405053813499,-1.623268688811,1.077390734812,430511305.0,-1036451261,-90.0,2.353,58.17,33004,32908,32738,-8.353659,-0.36585367,-14.817073,32713,32455,31347,1.99,1.24,-0.27,3.0,1.0,2.0,3.0
964868685,704,2020-07-28/964868685s704ms.jpg,964868685s704ms.jpg,632,25411,33617,35910,-0.41503906,-1.5224608999999998,3.6064453,-4.070142797749,-14.930241184985,35.367146801245,430511033.0,-1036451628,-89.80000000000003,2.231,60.23,33100,33159,33437,-23.658537,-42.987804,-20.670732,32719,32456,31345,1.93,1.1,-0.27,3.0,1.0,2.0,3.0
964868685,704,2020-07-28/964868685s704ms.jpg,964868685s704ms.jpg,602,39152,32218,37468,0.2680664,-2.2832031,-3.1030273,2.6288333615599995,-22.390573680615,-30.430302671545,430510982.0,-1036451745,-89.60000000000002,2.126,57.56,32426,31968,33225,48.963413,-30.060976,20.426828,32713,32439,31354,1.79,1.14,-0.27,3.0,1.0,2.0,3.0
964868685,704,2020-07-28/964868685s704ms.jpg,964868685s704ms.jpg,522,31558,32318,34523,0.21923828,-0.84521484,0.60498047,2.1499930785620003,-8.288726110686001,5.9328317261255,430510836.0,-1036452010,-89.39999999999998,2.068,53.51,32058,32431,32910,20.731707,-10.853659,42.865852,32726,32455,31339,1.66,1.22,-0.26,3.0,1.0,2.0,3.0
964868685,704,2020-07-28/964868685s704ms.jpg,964868685s704ms.jpg,976,28829,32517,34405,0.12207031,-0.78759766,1.9375,1.1971008055615,-7.723694592438999,19.000384375,430511897.0,-1036450037,-90.60000000000002,2.4090000000000003,64.89,32631,32951,33291,-10.97561,-34.085365,7.9268293,32736,32459,31324,2.18,1.02,-0.27,3.0,1.0,2.0,3.0
964868685,704,2020-07-28/964868685s704ms.jpg,964868685s704ms.jpg,926,34495,32348,32802,0.20458984,-0.0048828125,-0.82910156,2.006340954436,-0.047884033203125,-8.130708813374,430511829.0,-1036450253,-90.39999999999998,2.456,64.85,32333,32912,32955,-8.597561,-13.597561,26.09756,32731,32439,31330,2.22,1.04,-0.27,3.0,1.0,2.0,3.0
964868685,704,2020-07-28/964868685s704ms.jpg,964868685s704ms.jpg,896,28288,32587,31878,0.087890625,0.44628906,2.2016602,0.86191259765625,4.3766006102490005,21.59091100033,430511777.0,-1036450387,-90.39999999999998,2.515,63.9,32258,33158,32968,-23.59756,-14.390244,30.670732,32741,32478,31322,2.25,1.1,-0.27,3.0,1.0,2.0,3.0
964868685,704,2020-07-28/964868685s704ms.jpg,964868685s704ms.jpg,864,33239,32035,32579,0.35742188,0.104003906,-0.21582031,3.505111279502,1.0199299047749,-2.1164742430615,430511701.0,-1036450534,-90.39999999999998,2.569,64.16,32143,33138,32665,-22.378048,4.0853660000000005,37.682926,32729,32442,31331,2.31,1.11,-0.27,3.0,1.0,2.0,3.0
964868685,704,2020-07-28/964868685s704ms.jpg,964868685s704ms.jpg,773,32080,32858,29771,-0.044433594,1.4750976999999998,0.35009766,-0.4357447046001,14.465766859705,3.4332852174389994,430511520.0,-1036450955,-90.2,2.515,58.97,32821,33498,32822,-44.32927,-5.487805000000001,-3.6585367,32725,32464,31334,2.15,1.29,-0.27,3.0,1.0,2.0,3.0
964868685,704,2020-07-28/964868685s704ms.jpg,964868685s704ms.jpg,502,30976,32994,33664,-0.110839844,-0.42578125,0.88916016,-1.0869675561626,-4.1754876953125,8.719682483064,430510798.0,-1036452067,-89.39999999999998,2.073,53.37,31995,32540,32803,14.085366,-4.3292685,46.707317,32719,32427,31346,1.66,1.23,-0.26,3.0,1.0,2.0,3.0
964868685,704,2020-07-28/964868685s704ms.jpg,964868685s704ms.jpg,209,29629,32499,32328,0.13085938,0.2265625,1.546875,1.283292138877,2.221819140625,15.16966171875,430509832.0,-1036453174,-88.60000000000002,1.957,71.62,31823,32895,32274,-7.560975599999999,27.926828000000004,57.19512,32717,32480,31335,1.85,0.61,-0.26,3.0,1.0,2.0,3.0
964868685,704,2020-07-28/964868685s704ms.jpg,964868685s704ms.jpg,138,31144,32739,33009,0.013671875,-0.10595703,0.8071289,0.1340752929687499,-1.0390835082494998,7.915230627185,430509677.0,-1036453432,-88.39999999999998,1.925,74.81,32797,32756,32232,0.91463417,30.487804,-2.195122,32716,32500,31330,1.85,0.5,-0.26,3.0,1.0,2.0,3.0
964868685,704,2020-07-28/964868685s704ms.jpg,964868685s704ms.jpg,57,29658,33128,33093,-0.17626953,-0.14697266,1.5327148000000002,-1.7286135863745,-1.441309436189,15.03079759342,430509550.0,-1036453683,-88.19999999999997,1.816,76.99,33624,32671,32624,6.097561,6.5853660000000005,-52.621952,32708,32494,31336,1.76,0.4,-0.26,3.0,1.0,2.0,3.0
964868685,704,2020-07-28/964868685s704ms.jpg,964868685s704ms.jpg,422,30887,33288,33694,-0.25439453,-0.4404297,0.9326171999999998,-2.4947581176245,-4.319139917505,9.14585046438,430510631.0,-1036452285,-89.19999999999997,2.048,56.37,32179,32963,32821,-11.707317,-5.4268293,35.487804,32721,32440,31341,1.7,1.13,-0.26,3.0,1.0,2.0,3.0
964868685,704,2020-07-28/964868685s704ms.jpg,964868685s704ms.jpg,371,33459,33090,34067,-0.15771484,-0.6225586,-0.3232422,-1.5466542356859998,-6.10521429469,-3.16992312063,430510373.0,-1036452532,-89.0,1.981,60.24,32167,32705,32690,4.02439,2.5609756,36.219513,32719,32442,31341,1.71,0.98,-0.26,3.0,1.0,2.0,3.0
964868685,704,2020-07-28/964868685s704ms.jpg,964868685s704ms.jpg,239,30592,32978,32802,-0.103027344,-0.0048828125,1.0766601999999998,-1.0103531030375998,-0.047884033203125,10.55842975033,430509956.0,-1036453031,-88.80000000000003,1.964,69.42,31484,32892,32182,-7.378049000000001,33.536587,77.86585,32719,32461,31339,1.83,0.69,-0.26,3.0,1.0,2.0,3.0
964868685,704,2020-07-28/964868685s704ms.jpg,964868685s704ms.jpg,300,31763,33026,32917,-0.12646484,-0.0610351559999999,0.5048828,-1.240196423186,-0.5985504125873999,4.951208910619999,430510061.0,-1036452864,-88.80000000000003,1.921,67.17,32147,32972,32698,-12.256098,2.0731707,37.439026,32720,32453,31342,1.77,0.74,-0.26,3.0,1.0,2.0,3.0
964868685,704,2020-07-28/964868685s704ms.jpg,964868685s704ms.jpg,270,31497,33298,33426,-0.25927734,-0.3095703,0.6347656,-2.542642126311,-3.035847582495,6.224924071240001,430510003.0,-1036452945,-88.80000000000003,1.947,68.09,31805,32918,32511,-8.963414,13.47561,58.292683,32726,32474,31332,1.8,0.72,-0.26,3.0,1.0,2.0,3.0
964868685,704,2020-07-28/964868685s704ms.jpg,964868685s704ms.jpg,361,31920,33044,33796,-0.1352539,-0.49023438,0.42822266,-1.326387658435,-4.807556982627,4.199429748688999,430510311.0,-1036452590,-89.0,1.968,61.56,32147,32734,32681,2.2560976000000004,3.109756,37.439026,32721,32450,31338,1.73,0.93,-0.26,3.0,1.0,2.0,3.0
964868643,729,2020-07-28/964868643s729ms.jpg,964868643s729ms.jpg,661,29717,32814,33406,-0.022949219,-0.2998047,1.5039062,-0.22505495850635,-2.9400797612550003,14.748281736229998,430439329.0,-1036520477,-61.19999999999999,4.559,347.34,32622,32721,32653,3.0487804,4.8170733,8.475610000000001,32711,32492,31342,-0.99,4.44,-0.91,1.0,0.0,0.0,1.0
964868643,729,2020-07-28/964868643s729ms.jpg,964868643s729ms.jpg,691,31457,32494,33597,0.13330078,-0.3930664,0.6542969,1.307234094187,-3.85466461156,6.416460694384999,430439316.0,-1036520654,-62.0,4.56,346.96,32547,32458,32660,19.085365,4.390244,13.04878,32702,32476,31350,-1.02,4.44,-0.93,1.0,0.0,0.0,1.0
964868643,729,2020-07-28/964868643s729ms.jpg,964868643s729ms.jpg,581,30021,32710,32706,0.027832031,0.041992188,1.3554688,0.27293898680615,0.4118026904502,13.292608107519998,430439149.0,-1036520115,-59.600000000000016,4.43,349.02,32723,32707,32801,3.902439,-4.207317,2.317073,32707,32482,31346,-0.84,4.34,-0.87,1.0,0.0,0.0,1.0
964868643,729,2020-07-28/964868643s729ms.jpg,964868643s729ms.jpg,571,30371,32620,32490,0.071777344,0.14746094,1.1845703,0.7038952905375999,1.446097827251,11.616666332495,430439136.0,-1036520076,-59.600000000000016,4.437,348.96,32768,32671,32775,6.097561,-2.621951,-0.42682928,32709,32487,31343,-0.85,4.35,-0.87,1.0,0.0,0.0,1.0
964868643,729,2020-07-28/964868643s729ms.jpg,964868643s729ms.jpg,641,29225,32753,32211,0.0068359375,0.2836914,1.7441406000000004,0.0670376464843749,2.78206226781,17.104176414989993,430439256.0,-1036520406,-61.0,4.526,347.51,32648,32717,32731,3.292683,0.06097561,6.890244,32712,32500,31342,-0.97,4.41,-0.9,1.0,0.0,0.0,1.0
964868643,729,2020-07-28/964868643s729ms.jpg,964868643s729ms.jpg,984,31564,32873,33615,-0.051757812,-0.40185547,0.6020508000000001,-0.5075707470498,-3.9408559448755,5.904101477819999,430440334.0,-1036522116,-57.0,4.513999999999999,347.73,32408,32853,32784,-5.0,-3.1707318,21.524391,32701,32468,31354,-0.95,4.41,-0.39,1.0,0.0,0.0,1.0
964868643,729,2020-07-28/964868643s729ms.jpg,964868643s729ms.jpg,874,29916,33019,32857,-0.123046875,-0.03173828,1.4067383,-1.20667763671875,-0.311246203562,13.795390149695,430439999.0,-1036521630,-57.19999999999999,4.859,343.51,32582,32835,32822,-3.902439,-5.487805000000001,10.914634,32706,32485,31350,-1.37,4.65,-0.47,1.0,0.0,0.0,1.0
964868643,729,2020-07-28/964868643s729ms.jpg,964868643s729ms.jpg,174,29731,32520,31983,0.12060547,0.39501953,1.4970703,1.1827356323755,3.8738182738745,14.681244457495,430438663.0,-1036517965,-51.19999999999999,4.924,353.74,32500,32816,32910,-2.7439024,-10.853659,15.914634,32720,32484,31333,-0.53,4.89,-0.62,1.0,0.0,0.0,1.0
964868643,729,2020-07-28/964868643s729ms.jpg,964868643s729ms.jpg,134,31664,32548,34171,0.106933594,-0.67333984,0.55322266,1.0486603296001,-6.603208141936,5.425260998689,430438442.0,-1036517844,-50.80000000000001,4.9430000000000005,352.56,32402,32827,32817,-3.4146342000000005,-5.1829267,21.890244,32721,32481,31333,-0.63,4.9,-0.6,1.0,0.0,0.0,1.0
964868643,729,2020-07-28/964868643s729ms.jpg,964868643s729ms.jpg,103,29622,32771,31830,-0.001953125,0.46972656,1.550293,-0.01915361328125,4.606443969624,15.203180848449998,430438354.0,-1036517722,-50.399999999999984,5.009,352.73,32479,32819,32807,-2.9268293,-4.5731707,17.195122,32722,32487,31331,-0.63,4.96,-0.59,1.0,0.0,0.0,1.0
964868643,729,2020-07-28/964868643s729ms.jpg,964868643s729ms.jpg,63,30694,32736,32607,0.015136719,0.09033203,1.0268555,0.1484405053813499,0.8858546019994998,10.070012489075,430438253.0,-1036517566,-49.80000000000001,5.122999999999999,352.67,32649,32752,32874,1.1585366,-8.658536999999999,6.8292685,32719,32475,31333,-0.65,5.08,-0.58,1.0,0.0,0.0,1.0
964868643,729,2020-07-28/964868643s729ms.jpg,964868643s729ms.jpg,43,30584,33132,33227,-0.17822266,-0.21240234,1.0805664,-1.747767248689,-2.082955407561,10.59673648656,430438222.0,-1036517455,-49.600000000000016,5.188,353.24,32692,32845,32812,-4.512194999999999,-4.878049,4.207317,32719,32478,31334,-0.61,5.15,-0.57,1.0,0.0,0.0,1.0
964868643,729,2020-07-28/964868643s729ms.jpg,964868643s729ms.jpg,3,30573,32773,32747,-0.0029296875,0.021972656,1.0859375,-0.028730419921875,0.2154781469624,10.649408984375,430438265.0,-1036517123,-49.19999999999999,5.305,357.08,32800,32777,32876,-0.36585367,-8.780488,-2.3780490000000003,32722,32492,31331,-0.27,5.29,-0.56,1.0,0.0,0.0,1.0
964868643,729,2020-07-28/964868643s729ms.jpg,964868643s729ms.jpg,248,31014,33214,33811,-0.21826172,-0.4975585999999999,0.87060547,-2.140416296438,-4.879383044690001,8.537723132375499,430438910.0,-1036518331,-52.80000000000001,4.89,354.65,32570,32741,32881,1.8292683,-9.085366,11.646341,32723,32505,31330,-0.45,4.86,-0.67,1.0,0.0,0.0,1.0
964868643,729,2020-07-28/964868643s729ms.jpg,964868643s729ms.jpg,411,30029,33199,32423,-0.2109375,0.18017578,1.3515625,-2.068590234375,1.766920812937,13.254300390625,430439036.0,-1036519174,-56.600000000000016,4.641,355.51,32624,32773,32787,-0.12195122,-3.3536584,8.353659,32715,32506,31337,-0.36,4.62,-0.79,1.0,0.0,0.0,1.0
964868643,729,2020-07-28/964868643s729ms.jpg,964868643s729ms.jpg,401,31034,32982,32964,-0.10498047,-0.083984375,0.86083984,-1.0295067261255,-0.82360537109375,8.441955016936001,430439033.0,-1036519132,-56.399999999999984,4.658,355.4,32604,32734,32715,2.2560976000000004,1.0365853,9.573171,32710,32487,31341,-0.37,4.64,-0.79,1.0,0.0,0.0,1.0
964868643,729,2020-07-28/964868643s729ms.jpg,964868643s729ms.jpg,380,32281,32467,33497,0.14648438,-0.34423828,0.25195312,1.436521045127,-3.375824328562,2.4708160642479995,430439020.0,-1036519042,-55.80000000000001,4.7010000000000005,355.15,32617,32599,32818,10.487804,-5.243901999999999,8.780488,32710,32483,31342,-0.39,4.68,-0.77,1.0,0.0,0.0,1.0
964868643,729,2020-07-28/964868643s729ms.jpg,964868643s729ms.jpg,358,31097,32764,33219,0.0014648438,-0.2084961,0.8300780999999999,0.01436521045127,-2.044648279065,8.140285399365,430438995.0,-1036518953,-55.399999999999984,4.725,354.96,32643,32589,32779,11.097561,-2.8658535,7.1951220000000005,32715,32497,31334,-0.41,4.7,-0.76,1.0,0.0,0.0,1.0
964868643,729,2020-07-28/964868643s729ms.jpg,964868643s729ms.jpg,308,30105,33096,33030,-0.16064453,-0.11621094,1.3144531000000002,-1.5753846801245002,-1.139640014751,12.890381493115,430439012.0,-1036518621,-54.399999999999984,4.89,356.03,32644,32741,32884,1.8292683,-9.268292,7.134146,32719,32509,31332,-0.33,4.87,-0.73,1.0,0.0,0.0,1.0
964868643,729,2020-07-28/964868643s729ms.jpg,964868643s729ms.jpg,288,30285,33007,33070,-0.1171875,-0.13574219,1.2265625,-1.149216796875,-1.3311761475635,12.028469140625,430439071.0,-1036518484,-53.80000000000001,4.959,355.89,32694,32748,33032,1.402439,-18.292683,4.0853660000000005,32717,32490,31337,-0.35,4.94,-0.71,1.0,0.0,0.0,1.0
964868620,706,2020-07-28/964868620s706ms.jpg,964868620s706ms.jpg,704,30540,32775,33204,-0.00390625,-0.20117188,1.1020508,-0.0383072265625,-1.972822217002,10.80742647782,430419350.0,-1036536430,-41.80000000000001,1.729,60.02,32761,32778,32726,-0.42682928,0.36585367,0.0,32727,32552,31252,1.49,0.86,-0.07,1.0,0.0,0.0,0.0
964868620,706,2020-07-28/964868620s706ms.jpg,964868620s706ms.jpg,573,30893,33112,32336,-0.16845703,0.22265625,0.9296875,-1.6519991332495,2.1835119140625,9.117119921875,430419265.0,-1036536720,-41.60000000000002,2.0,63.92,32589,32765,32691,0.36585367,2.5,10.487804,32726,32557,31252,1.79,0.87,-0.06,1.0,0.0,0.0,0.0
964868620,706,2020-07-28/964868620s706ms.jpg,964868620s706ms.jpg,551,31875,32964,33398,-0.096191406,-0.29589844,0.4501952999999999,-0.9433154516498998,-2.901772436626,4.414907738745,430419249.0,-1036536763,-41.60000000000002,2.055,64.61,32551,32755,32555,0.9756098,10.792683,12.804878,32725,32551,31253,1.85,0.88,-0.06,1.0,0.0,0.0,0.0
964868620,706,2020-07-28/964868620s706ms.jpg,964868620s706ms.jpg,521,30176,32847,32990,-0.0390625,-0.09667969,1.2797851999999998,-0.383072265625,-0.9481038819385,12.55040553158,430419215.0,-1036536828,-41.60000000000002,2.128,67.12,32668,32825,32683,-3.292683,2.987805,5.6707315000000005,32736,32600,31241,1.96,0.82,-0.06,1.0,0.0,0.0,0.0
964868620,706,2020-07-28/964868620s706ms.jpg,964868620s706ms.jpg,734,31244,32661,33287,0.051757812,-0.24169922,0.7583008000000001,0.5075707470498,-2.370259655813,7.43639054032,430419342.0,-1036536367,-41.80000000000001,1.64,59.64,32840,32749,32684,1.3414634,2.9268293,-4.8170733,32732,32567,31245,1.41,0.82,-0.08,1.0,0.0,0.0,0.0
964868620,706,2020-07-28/964868620s706ms.jpg,964868620s706ms.jpg,994,30827,32579,33732,0.091796875,-0.45898438,0.96191406,0.9002198242187499,-4.501099170127,9.433154516499,430419560.0,-1036536005,-42.39999999999998,1.442,49.83,32605,32970,32775,-12.134147,-2.621951,9.512196,32731,32555,31255,1.1,0.92,-0.1,1.0,0.0,0.0,0.0
964868620,706,2020-07-28/964868620s706ms.jpg,964868620s706ms.jpg,974,29895,32941,31972,-0.08496094,0.40039062,1.4169922,-0.8331822022509999,3.926490673623,13.895946558129998,430419541.0,-1036536033,-42.39999999999998,1.41,50.59,32474,32892,32779,-7.378049000000001,-2.8658535,17.5,32729,32545,31255,1.08,0.89,-0.1,1.0,0.0,0.0,0.0
964868620,706,2020-07-28/964868620s706ms.jpg,964868620s706ms.jpg,904,30367,32974,32912,-0.10107422,-0.05859375,1.1865233999999998,-0.991199499563,-0.5746083984375,11.635819700610002,430419460.0,-1036536145,-42.19999999999999,1.308,48.26,32404,32799,32605,-1.7073171000000005,7.743902,21.768293,32728,32548,31254,0.97,0.87,-0.09,1.0,0.0,0.0,0.0
964868620,706,2020-07-28/964868620s706ms.jpg,964868620s706ms.jpg,884,30253,32962,32955,-0.095214844,-0.079589844,1.2421875,-0.9337386499126,-0.7805097436626001,12.181698046875,430419438.0,-1036536168,-42.19999999999999,1.294,49.36,32499,32713,32637,3.5365853,5.792683,15.97561,32733,32565,31247,0.98,0.84,-0.09,1.0,0.0,0.0,0.0
964868620,706,2020-07-28/964868620s706ms.jpg,964868620s706ms.jpg,834,30052,33254,32892,-0.23779297,-0.048828125,1.340332,-2.3319524292505,-0.47884033203125,13.1441668078,430419399.0,-1036536227,-42.0,1.398,49.22,32681,32818,32660,-2.8658535,4.390244,4.878049,32726,32548,31252,1.05,0.91,-0.08,1.0,0.0,0.0,0.0
964868620,706,2020-07-28/964868620s706ms.jpg,964868620s706ms.jpg,501,30573,32884,32678,-0.0571289059999999,0.055664062,1.0859375,-0.5602431860249,0.5458779736123001,10.649408984375,430419193.0,-1036536873,-41.39999999999998,2.184,68.69,32788,32819,32597,-2.9268293,8.231708,-1.6463414,32733,32595,31243,2.03,0.79,-0.06,1.0,0.0,0.0,0.0
964868620,706,2020-07-28/964868620s706ms.jpg,964868620s706ms.jpg,128,31654,33286,34129,-0.25341797,-0.65283203,0.55810547,-2.4851813355005,-6.402095226999498,5.4731450073755,430418985.0,-1036537845,-41.0,1.626,81.33,32799,32705,32765,4.02439,-2.012195,-2.317073,32733,32594,31251,1.6,0.24,-0.04,1.0,0.0,0.0,0.0
964868620,706,2020-07-28/964868620s706ms.jpg,964868620s706ms.jpg,88,30256,32862,32535,-0.04638672,0.12548828,1.2407226999999998,-0.454898327688,1.2306196410619998,12.167333265955,430418980.0,-1036537936,-41.0,1.644,81.75,32785,32701,32918,4.268293,-11.341463,-1.4634147,32724,32560,31260,1.62,0.23,-0.04,1.0,0.0,0.0,0.0
964868620,706,2020-07-28/964868620s706ms.jpg,964868620s706ms.jpg,230,30504,32692,33152,0.036621094,-0.17578125,1.1196289,0.3591302514751,-1.7238251953125,10.979808752185,430419015.0,-1036537538,-41.19999999999999,1.771,76.95,32846,32830,32860,-3.597561,-7.804877999999999,-5.1829267,32719,32547,31258,1.72,0.4,-0.05,1.0,0.0,0.0,0.0
964868620,706,2020-07-28/964868620s706ms.jpg,964868620s706ms.jpg,431,30491,33020,32814,-0.123535156,-0.0107421875,1.1259766000000002,-1.2114660375873998,-0.105344873046875,11.04205842439,430419086.0,-1036537062,-41.39999999999998,1.944,74.55,32863,32740,32708,1.8902439,1.4634147,-6.219512,32730,32584,31245,1.87,0.51,-0.05,1.0,0.0,0.0,0.0
964868620,706,2020-07-28/964868620s706ms.jpg,964868620s706ms.jpg,401,30754,32982,33288,-0.10498047,-0.2421875,0.9975586,-1.0295067261255,-2.375048046875,9.78270804469,430419065.0,-1036537133,-41.39999999999998,1.955,75.08,32833,32771,32727,0.0,0.30487806,-4.390244,32722,32563,31254,1.88,0.5,-0.05,1.0,0.0,0.0,0.0
964868620,706,2020-07-28/964868620s706ms.jpg,964868620s706ms.jpg,340,31001,32527,32888,0.1171875,-0.046875,0.8769530999999999,1.149216796875,-0.45968671875,8.599972118115,430419026.0,-1036537295,-41.19999999999999,1.743,74.57,32989,32815,32851,-2.682927,-7.256098,-13.902439,32722,32555,31252,1.67,0.46,-0.05,1.0,0.0,0.0,0.0
964868620,706,2020-07-28/964868620s706ms.jpg,964868620s706ms.jpg,310,30727,33419,33032,-0.31835938,-0.1171875,1.0107422,-3.122039013877,-1.149216796875,9.911994995629998,430419029.0,-1036537369,-41.19999999999999,1.765,75.16,32934,32847,32791,-4.634146,-3.597561,-10.54878,32727,32576,31252,1.7,0.45,-0.05,1.0,0.0,0.0,0.0
964868620,706,2020-07-28/964868620s706ms.jpg,964868620s706ms.jpg,300,30290,33138,32804,-0.18115234,-0.005859375,1.2241211,-1.7764975950609998,-0.05746083984375,12.004527185315,430419022.0,-1036537394,-41.19999999999999,1.761,75.83,32896,32839,32845,-4.1463413000000005,-6.890244,-8.231708,32731,32592,31249,1.7,0.43,-0.05,1.0,0.0,0.0,0.0
964868620,706,2020-07-28/964868620s706ms.jpg,964868620s706ms.jpg,370,30415,32794,33294,-0.013183594,-0.24511719,1.1630858999999998,-0.1292868921001,-2.4037784913135,11.405976341235002,430419053.0,-1036537202,-41.19999999999999,1.968,74.82,32879,32766,32760,0.30487806,-1.7073171000000005,-7.1951220000000005,32728,32579,31246,1.89,0.51,-0.05,1.0,0.0,0.0,0.0
964868688,707,2020-07-28/964868688s707ms.jpg,964868688s707ms.jpg,647,29782,33255,32080,-0.23828125,0.34765625,1.472168,-2.3367408203125,3.4093431640625,14.4370363172,430515700.0,-1036442545,-98.60000000000002,2.299,47.44,32337,32983,32307,-12.926829,25.914635,25.853659,32720,32494,31337,1.69,1.55,-0.31,3.0,1.0,2.0,3.0
964868688,707,2020-07-28/964868688s707ms.jpg,964868688s707ms.jpg,657,31361,32533,32664,0.11425781,0.0625,0.7011719,1.1204863524365,0.612915625,6.876147413135,430515732.0,-1036442510,-98.60000000000002,2.337,47.41,32178,32950,32295,-10.914634,26.646341,35.548782,32715,32477,31343,1.72,1.58,-0.31,3.0,1.0,2.0,3.0
964868688,707,2020-07-28/964868688s707ms.jpg,964868688s707ms.jpg,667,32262,32176,33496,0.28857422,-0.34375,0.26123047,2.829946374563,-3.3710359375,2.5617957886255,430515761.0,-1036442474,-98.60000000000002,2.418,47.61,32027,32887,32274,-7.0731707,27.926828000000004,44.756096,32712,32464,31345,1.78,1.63,-0.31,3.0,1.0,2.0,3.0
964868688,707,2020-07-28/964868688s707ms.jpg,964868688s707ms.jpg,717,29589,33136,32659,-0.18017578,0.064941406,1.5664062,-1.766920812937,0.6368576391498999,15.36119736123,430515913.0,-1036442286,-98.8,2.432,46.24,31602,33108,32501,-20.54878,14.085366,70.67073,32721,32475,31339,1.75,1.68,-0.31,3.0,1.0,2.0,3.0
964868688,707,2020-07-28/964868688s707ms.jpg,964868688s707ms.jpg,607,30985,34386,34009,-0.79052734,-0.5942383000000001,0.8847655999999999,-7.752424938811001,-5.827487024695,8.67658657124,430515580.0,-1036442678,-98.39999999999998,2.13,47.71,32770,32526,32797,14.939024,-3.9634147,-0.5487805,32710,32482,31342,1.57,1.43,-0.31,3.0,1.0,2.0,3.0
964868688,707,2020-07-28/964868688s707ms.jpg,964868688s707ms.jpg,587,31051,34408,33169,-0.80126953,-0.18408203,0.85253906,-7.8577698363745,-1.8052280394995,8.360552172749,430515525.0,-1036442733,-98.39999999999998,2.093,48.69,32518,32701,32559,4.268293,10.54878,14.817073,32710,32486,31342,1.57,1.38,-0.3,3.0,1.0,2.0,3.0
964868688,707,2020-07-28/964868688s707ms.jpg,964868688s707ms.jpg,545,31445,33437,32265,-0.32714844,0.25732422,0.66015625,-3.208230249126,2.523488562063,6.4739212890625,430515409.0,-1036442853,-98.2,1.95,48.89,32087,32564,32243,12.621951,29.817074,41.09756,32710,32491,31339,1.46,1.28,-0.3,3.0,1.0,2.0,3.0
964868688,707,2020-07-28/964868688s707ms.jpg,964868688s707ms.jpg,727,30169,33085,32120,-0.15527344,0.328125,1.2832031000000002,-1.522712280376,3.21780703125,12.583923680615,430515944.0,-1036442244,-98.8,2.43,45.89,31573,33240,32595,-28.59756,8.353659,72.439026,32718,32461,31342,1.74,1.69,-0.31,3.0,1.0,2.0,3.0
964868688,707,2020-07-28/964868688s707ms.jpg,964868688s707ms.jpg,857,30276,33602,31917,-0.40771484,0.4272460999999999,1.230957,-3.998316735686,4.189852966565,12.07156446405,430516298.0,-1036441754,-99.2,2.327,47.55,33184,33224,33294,-27.621952,-34.26829,-25.792683,32725,32480,31334,1.71,1.57,-0.31,3.0,1.0,2.0,3.0
964868688,707,2020-07-28/964868688s707ms.jpg,964868688s707ms.jpg,971,27625,33334,33375,-0.27685547,-0.28466797,2.5253906,-2.7150246948755004,-2.7916391480005003,24.76562172749,430515373.0,-1036441811,-95.0,1.996,57.52,32934,32892,32769,-7.378049000000001,-2.2560976000000004,-10.54878,32726,32476,31331,1.68,1.07,-0.3,3.0,1.0,2.0,3.0
964868688,707,2020-07-28/964868688s707ms.jpg,964868688s707ms.jpg,950,34021,32285,33189,0.23535156,-0.19384766,-0.59765625,2.308010375874,-1.900996154939,-5.8610056640625,430515667.0,-1036441771,-96.0,2.071,53.69,32891,32636,32829,8.231708,-5.914634,-7.9268293,32725,32475,31334,1.66,1.22,-0.3,3.0,1.0,2.0,3.0
964868688,707,2020-07-28/964868688s707ms.jpg,964868688s707ms.jpg,930,32370,32821,32645,-0.026367188,0.071777344,0.2084961,-0.2585737842002,0.7038952905375999,2.044648279065,430515937.0,-1036441730,-97.2,2.15,52.06,33053,32763,32858,0.4878049,-7.6829267,-17.804878,32728,32484,31332,1.69,1.32,-0.3,3.0,1.0,2.0,3.0
964868688,707,2020-07-28/964868688s707ms.jpg,964868688s707ms.jpg,93,29152,32551,31834,0.10546875,0.46777344,1.7797851999999998,1.0342951171875,4.587290405376,17.45373053158,430514645.0,-1036444184,-97.0,2.197,45.02,32145,32171,31716,36.585365,61.951218,37.560974,32707,32540,31325,1.55,1.55,-0.31,3.0,1.0,2.0,3.0
964868688,707,2020-07-28/964868688s707ms.jpg,964868688s707ms.jpg,435,30257,32508,34225,0.12646484,-0.69970703,1.2402343999999998,1.240196423186,-6.8617819457495,12.162544678760002,430515229.0,-1036443147,-98.0,2.056,57.12,33451,33252,32957,-29.329268,-13.719512,-42.073170000000005,32708,32489,31337,1.72,1.11,-0.31,3.0,1.0,2.0,3.0
964868688,707,2020-07-28/964868688s707ms.jpg,964868688s707ms.jpg,395,36156,31859,33186,0.44335938,-0.19238281,-1.6401366999999998,4.347870263877001,-1.8866308836865,-16.084246569055,430515159.0,-1036443243,-97.8,2.199,58.4,33258,32471,33068,18.292683,-20.487804,-30.304878,32709,32499,31338,1.87,1.15,-0.31,3.0,1.0,2.0,3.0
964868688,707,2020-07-28/964868688s707ms.jpg,964868688s707ms.jpg,375,30900,33891,36905,-0.5488281,-2.0083008,0.92626953,-5.382165086864999,-19.69470304032,9.0836010863745,430515121.0,-1036443306,-97.8,2.199,57.66,33125,31993,33144,47.439026,-25.121952,-22.195122,32705,32475,31344,1.85,1.17,-0.31,3.0,1.0,2.0,3.0
964868688,707,2020-07-28/964868688s707ms.jpg,964868688s707ms.jpg,405,32954,31864,34155,0.44091797,-0.66552734,-0.076660156,4.323928210500498,-6.526593688810999,-0.7517793188373999,430515174.0,-1036443221,-97.8,2.178,58.3,33420,32770,33196,0.06097561,-28.292683,-40.182926,32711,32508,31335,1.85,1.14,-0.31,3.0,1.0,2.0,3.0
964868688,707,2020-07-28/964868688s707ms.jpg,964868688s707ms.jpg,314,29702,34171,29048,-0.6855469,1.828125,1.5112305,-6.722918506885,17.92778203125,14.820108582824998,430514918.0,-1036443513,-97.60000000000002,2.142,55.96,32542,33387,33222,-37.560974,-29.878048,13.353659,32717,32474,31337,1.77,1.19,-0.31,3.0,1.0,2.0,3.0
964868688,707,2020-07-28/964868688s707ms.jpg,964868688s707ms.jpg,304,29220,34214,31514,-0.70654297,0.62402344,1.746582,-6.928819616750499,6.119579467875999,17.1281183703,430514885.0,-1036443542,-97.60000000000002,2.156,56.34,32411,33354,33242,-35.548782,-31.09756,21.341463,32715,32467,31340,1.79,1.19,-0.31,3.0,1.0,2.0,3.0
964868688,707,2020-07-28/964868688s707ms.jpg,964868688s707ms.jpg,264,32579,32671,35042,0.046875,-1.0986328,0.10644531,0.45968671875,-10.77390734812,1.0438718993115002,430514792.0,-1036443643,-97.39999999999998,2.184,58.58,31833,32977,33067,-12.560976,-20.426828,56.585365,32721,32494,31334,1.86,1.13,-0.31,3.0,1.0,2.0,3.0
964868683,702,2020-07-28/964868683s702ms.jpg,964868683s702ms.jpg,669,34114,32947,31225,-0.087890625,0.7651366999999999,-0.6430664,-0.86191259765625,7.503427819054999,-6.30632711156,430506482.0,-1036455922,-85.19999999999997,2.046,20.96,31699,32947,32503,-10.731708,13.963414000000002,64.756096,32736,32406,31329,0.73,1.91,-0.23,3.0,1.0,2.0,3.0
964868683,702,2020-07-28/964868683s702ms.jpg,964868683s702ms.jpg,700,27119,33285,33652,-0.2529297,-0.41992188,2.772461,-2.480393042505,-4.118026904502,27.188554665649995,430506562.0,-1036455887,-85.19999999999997,2.036,22.99,31637,33342,32727,-34.817074,0.30487806,68.53658,32734,32389,31330,0.79,1.87,-0.23,3.0,1.0,2.0,3.0
964868683,702,2020-07-28/964868683s702ms.jpg,964868683s702ms.jpg,639,30822,32802,33522,-0.017089844,-0.3564453,0.96435547,-0.1675941186626,-3.495534301245,9.4570965698755,430506415.0,-1036455940,-85.19999999999997,2.05,20.78,31611,32871,32488,-6.097561,14.878049,70.12195,32730,32400,31335,0.72,1.91,-0.23,3.0,1.0,2.0,3.0
964868683,702,2020-07-28/964868683s702ms.jpg,964868683s702ms.jpg,609,31618,32405,32222,0.17675781,0.2783203,0.5756836,1.7334019774364997,2.729389769995,5.645527575939998,430506320.0,-1036455978,-85.0,1.997,19.46,31897,32913,32254,-8.658536999999999,29.146341,52.682926,32735,32431,31331,0.66,1.88,-0.22,3.0,1.0,2.0,3.0
964868683,702,2020-07-28/964868683s702ms.jpg,964868683s702ms.jpg,629,30344,32247,32331,0.25390625,0.22509766,1.1977539,2.4899697265625,2.207453967439,11.745953283434998,430506389.0,-1036455951,-85.0,2.035,20.48,31665,32930,32348,-9.695122,23.414635,66.82927,32729,32400,31337,0.71,1.9,-0.23,3.0,1.0,2.0,3.0
964868683,702,2020-07-28/964868683s702ms.jpg,964868683s702ms.jpg,750,32836,33391,32751,-0.3046875,0.020019531,-0.019042969,-2.987963671875,0.19632453368115,-0.18674773194385,430506702.0,-1036455826,-85.39999999999998,2.0980000000000003,26.12,31647,33072,32703,-18.353659,1.7682927,67.92683000000001,32736,32376,31327,0.92,1.88,-0.23,3.0,1.0,2.0,3.0
964868683,702,2020-07-28/964868683s702ms.jpg,964868683s702ms.jpg,990,28689,29818,37137,1.4399414,-2.121582,2.0058594,14.12100133031,-20.8056121203,19.67076108501,430507220.0,-1036455738,-85.80000000000003,1.744,17.51,31945,31567,33598,73.414635,-52.80488,49.756096,32728,32365,31334,0.52,1.66,-0.23,3.0,1.0,2.0,3.0
964868683,702,2020-07-28/964868683s702ms.jpg,964868683s702ms.jpg,810,28707,33577,30683,-0.3955078,1.0297851999999998,1.9970703,-3.87860656687,10.09874303158,19.584569457495,430506850.0,-1036455788,-85.39999999999998,2.04,25.44,31632,32814,32383,-2.621951,21.280487,68.84146,32737,32363,31320,0.87,1.84,-0.23,3.0,1.0,2.0,3.0
964868683,702,2020-07-28/964868683s702ms.jpg,964868683s702ms.jpg,790,30033,33506,33080,-0.36083984,-0.140625,1.3496093999999998,-3.538630016936,-1.37906015625,13.235147022510002,430506804.0,-1036455793,-85.39999999999998,2.068,26.59,31551,33246,32610,-28.963415,7.439024400000001,73.78049,32738,32369,31321,0.92,1.84,-0.23,3.0,1.0,2.0,3.0
964868683,702,2020-07-28/964868683s702ms.jpg,964868683s702ms.jpg,780,26595,32945,31833,-0.08691406,0.46826172,3.0283203,-0.852335766499,4.592078796438,29.697677269995,430506772.0,-1036455801,-85.39999999999998,2.08,26.43,31497,33292,32738,-31.768293,-0.36585367,77.07316999999999,32737,32368,31321,0.92,1.86,-0.23,3.0,1.0,2.0,3.0
964868683,702,2020-07-28/964868683s702ms.jpg,964868683s702ms.jpg,880,36167,31457,35045,0.63964844,-1.1000976999999998,-1.6455078,6.272808374126001,-10.788273109705,-16.13691906687,430506992.0,-1036455777,-85.60000000000002,1.911,20.54,31581,32123,32785,39.512196,-3.2317073,71.95121999999999,32730,32355,31327,0.67,1.78,-0.23,3.0,1.0,2.0,3.0
964868683,702,2020-07-28/964868683s702ms.jpg,964868683s702ms.jpg,166,30804,33120,33701,-0.17236328,-0.44384766,0.97314453,-1.690306359812,-4.352658654939,9.5432878051245,430505202.0,-1036456443,-84.0,2.093,31.23,32488,32859,32589,-5.365854,8.719512,16.646341,32723,32485,31321,1.08,1.79,-0.21,3.0,1.0,2.0,3.0
964868683,702,2020-07-28/964868683s702ms.jpg,964868683s702ms.jpg,126,30791,33196,32750,-0.20947266,0.020507812,0.9794921999999998,-2.054225061189,0.2011129345497999,9.60553718313,430505084.0,-1036456504,-83.80000000000003,2.088,32.36,32047,33092,32566,-19.573172,10.121951,43.536587,32720,32488,31322,1.11,1.76,-0.21,3.0,1.0,2.0,3.0
964868683,702,2020-07-28/964868683s702ms.jpg,964868683s702ms.jpg,116,30965,32997,33295,-0.11230469,-0.24560547,0.89453125,-1.1013327881885,-2.4085668823755,8.772354882812499,430505033.0,-1036456546,-83.80000000000003,2.067,31.54,31918,33086,32513,-19.207317,13.353659,51.402440000000006,32722,32502,31322,1.08,1.76,-0.21,3.0,1.0,2.0,3.0
964868683,702,2020-07-28/964868683s702ms.jpg,964868683s702ms.jpg,76,32752,33088,32997,-0.15673828,-0.100097656,0.021972656,-1.5370774535620002,-0.9816226782124,0.2154781469624,430504804.0,-1036456707,-83.80000000000003,1.917,28.77,31654,33058,32220,-17.5,31.219513,67.5,32718,32505,31320,0.92,1.68,-0.2,3.0,1.0,2.0,3.0
964868683,702,2020-07-28/964868683s702ms.jpg,964868683s702ms.jpg,499,31436,32873,33520,-0.051757812,-0.35546875,0.6645508000000001,-0.5075707470498,-3.4859576171875,6.51701710282,430505995.0,-1036456081,-84.80000000000003,1.927,19.59,32715,32698,32481,4.4512196,15.304878,2.804878,32726,32439,31337,0.64,1.81,-0.22,3.0,1.0,2.0,3.0
964868683,702,2020-07-28/964868683s702ms.jpg,964868683s702ms.jpg,257,31650,33772,32885,-0.49072266,-0.0454101559999999,0.5600586,-4.812345373688999,-0.4453215063374,5.492298669689999,430505409.0,-1036456290,-84.19999999999997,2.085,33.27,32671,32917,32407,-8.902439,19.817074,5.487805000000001,32735,32509,31314,1.14,1.74,-0.21,3.0,1.0,2.0,3.0
964868683,702,2020-07-28/964868683s702ms.jpg,964868683s702ms.jpg,379,30551,32917,33519,-0.07324219,-0.35498047,1.0966797,-0.7182605225634999,-3.4811692261255,10.754753980005,430505680.0,-1036456184,-84.39999999999998,1.888,27.58,31748,32574,32405,12.012196,19.939024,61.76829,32731,32458,31329,0.87,1.67,-0.22,3.0,1.0,2.0,3.0
964868683,702,2020-07-28/964868683s702ms.jpg,964868683s702ms.jpg,327,31138,32783,33969,-0.0078125,-0.57470703,0.8100586,-0.076614453125,-5.6359506957495,7.943961169689999,430505543.0,-1036456231,-84.19999999999997,1.918,31.18,31928,32383,32127,23.658537,36.890244,50.792683,32734,32477,31323,0.99,1.64,-0.22,3.0,1.0,2.0,3.0
964868683,702,2020-07-28/964868683s702ms.jpg,964868683s702ms.jpg,277,29774,33713,32611,-0.46191406,0.088378906,1.4760742,-4.529829516499,0.8667009985248999,14.47534305343,430505445.0,-1036456274,-84.19999999999997,2.037,32.49,32496,32926,32297,-9.45122,26.524391,16.158537,32731,32481,31317,1.09,1.71,-0.22,3.0,1.0,2.0,3.0
964868680,699,2020-07-28/964868680s699ms.jpg,964868680s699ms.jpg,735,32117,32165,33724,0.2939453,-0.45507812,0.33203125,2.882618676245,-4.462791845498,3.2561142578125,430498488.0,-1036459160,-81.19999999999997,1.364,56.27,31482,32592,32842,10.914634,-6.707317,77.98781,32740,32355,31312,1.13,0.75,-0.13,3.0,1.0,2.0,3.0
964868680,699,2020-07-28/964868680s699ms.jpg,964868680s699ms.jpg,725,32247,32524,34239,0.118652344,-0.70654297,0.2685547,1.1635820092876,-6.928819616750499,2.633621948755,430498465.0,-1036459162,-81.19999999999997,1.362,56.27,31413,32680,32791,5.5487804,-3.597561,82.19511999999999,32742,32363,31310,1.13,0.75,-0.12,3.0,1.0,2.0,3.0
964868680,699,2020-07-28/964868680s699ms.jpg,964868680s699ms.jpg,715,31548,32745,34858,0.0107421875,-1.0087891,0.6098633000000001,0.105344873046875,-9.892841627515,5.980715930944999,430498445.0,-1036459168,-81.19999999999997,1.36,56.27,31356,32836,32836,-3.9634147,-6.3414636,85.67073,32740,32359,31314,1.13,0.75,-0.12,3.0,1.0,2.0,3.0
964868680,699,2020-07-28/964868680s699ms.jpg,964868680s699ms.jpg,684,29666,33978,32897,-0.5913086,-0.05126953,1.5288086,-5.798756482189999,-0.5027823363745,14.99249085719,430498385.0,-1036459184,-81.19999999999997,1.355,56.27,31223,32951,32957,-10.97561,-13.719512,93.78049,32735,32350,31321,1.12,0.75,-0.12,3.0,1.0,2.0,3.0
964868680,699,2020-07-28/964868680s699ms.jpg,964868680s699ms.jpg,624,30130,32724,31592,0.020996094,0.5859375,1.3022461,0.2059013452251,5.746083984375,12.770671716565,430498293.0,-1036459194,-81.19999999999997,1.408,56.27,31603,32527,32999,14.878049,-16.280487,70.60976,32732,32353,31326,1.17,0.78,-0.12,3.0,1.0,2.0,3.0
964868680,699,2020-07-28/964868680s699ms.jpg,964868680s699ms.jpg,604,30231,32467,33372,0.14648438,-0.28320312,1.2529297,1.436521045127,-2.777273876748,12.287043042505,430498255.0,-1036459211,-81.19999999999997,1.395,56.27,31669,32634,32946,8.353659,-13.04878,66.585365,32739,32379,31321,1.15,0.77,-0.12,3.0,1.0,2.0,3.0
964868680,699,2020-07-28/964868680s699ms.jpg,964868680s699ms.jpg,966,31104,32790,33105,-0.011230469,-0.15283203,0.82666016,-0.11013327881885,-1.4987702269995,8.106766858063999,430498891.0,-1036459196,-81.0,1.348,56.27,33943,32516,33917,15.54878,-72.256096,-72.07316999999999,32730,32412,31330,1.12,0.74,-0.14,3.0,1.0,2.0,3.0
964868680,699,2020-07-28/964868680s699ms.jpg,964868680s699ms.jpg,936,32452,32502,33772,0.12939453,-0.47851562,0.16845703,1.2689268676245,-4.692635204873,1.6519991332495,430498838.0,-1036459196,-81.0,1.371,56.27,33463,32431,33970,20.731707,-75.48781,-42.80488,32727,32381,31333,1.14,0.76,-0.14,3.0,1.0,2.0,3.0
964868680,699,2020-07-28/964868680s699ms.jpg,964868680s699ms.jpg,875,31743,31389,34216,0.67285156,-0.6953125,0.51464844,6.598419750873999,-6.818686328125,5.046977124125999,430498765.0,-1036459218,-81.0,1.378,56.27,32430,32272,33845,30.426828000000004,-67.86585,20.182926,32731,32357,31326,1.14,0.76,-0.14,3.0,1.0,2.0,3.0
964868680,699,2020-07-28/964868680s699ms.jpg,964868680s699ms.jpg,835,30540,32407,33731,0.17578125,-0.4584960999999999,1.1020508,1.7238251953125,-4.496310779064999,10.80742647782,430498702.0,-1036459200,-81.19999999999997,1.413,56.27,31777,32330,33390,26.890244,-40.121952,60.0,32738,32364,31314,1.17,0.78,-0.13,3.0,1.0,2.0,3.0
964868680,699,2020-07-28/964868680s699ms.jpg,964868680s699ms.jpg,825,29835,32163,33639,0.29492188,-0.41357422,1.4462891000000002,2.892195654502,-4.055777624563,14.183251002514998,430498683.0,-1036459190,-81.19999999999997,1.416,56.27,31746,32342,33404,26.158537,-40.97561,61.890244,32734,32350,31318,1.17,0.78,-0.13,3.0,1.0,2.0,3.0
964868680,699,2020-07-28/964868680s699ms.jpg,964868680s699ms.jpg,511,30107,33163,32094,-0.19335938,0.3408203,1.3134766000000002,-1.896207763877,3.342305394995,12.88080529939,430498072.0,-1036459322,-81.0,1.4,56.27,31912,32594,32705,10.792683,1.6463414,51.76829,32744,32397,31316,1.16,0.77,-0.12,3.0,1.0,2.0,3.0
964868680,699,2020-07-28/964868680s699ms.jpg,964868680s699ms.jpg,177,28804,32334,33543,0.21142578,-0.36669922,1.949707,2.073378625437,-3.5960909058129995,19.12009415155,430497655.0,-1036459861,-80.80000000000003,1.195,56.27,32481,33004,33259,-14.207317000000002,-32.134148,17.073172,32751,32406,31308,0.99,0.66,-0.11,3.0,1.0,2.0,3.0
964868680,699,2020-07-28/964868680s699ms.jpg,964868680s699ms.jpg,157,27691,32601,31767,0.08105469,0.5004883,2.493164,0.7948749756885,4.908113587195,24.4495867406,430497648.0,-1036459906,-80.80000000000003,1.1740000000000002,56.27,32628,32774,33461,-0.18292683,-44.451218,8.109755999999999,32745,32388,31313,0.97,0.65,-0.11,3.0,1.0,2.0,3.0
964868680,699,2020-07-28/964868680s699ms.jpg,964868680s699ms.jpg,77,30187,32598,32745,0.08251953,0.022949219,1.2744141000000002,0.8092401488744999,0.22505495850635,12.497733033764998,430497572.0,-1036460099,-80.60000000000002,1.039,56.27,32135,32404,32763,22.378048,-1.8902439,38.17073,32749,32390,31306,0.86,0.57,-0.12,3.0,1.0,2.0,3.0
964868680,699,2020-07-28/964868680s699ms.jpg,964868680s699ms.jpg,67,30066,32354,34077,0.20166016,-0.6274414,1.3334961,1.977610608064,-6.15309820531,13.077129529065,430497555.0,-1036460131,-80.60000000000002,1.025,56.27,32117,32447,32897,19.756098,-10.060976,39.26829,32752,32398,31300,0.85,0.56,-0.12,3.0,1.0,2.0,3.0
964868680,699,2020-07-28/964868680s699ms.jpg,964868680s699ms.jpg,238,28340,32980,33122,-0.104003906,-0.16113281,2.1762695,-1.0199299047749,-1.5801730711865,21.341913292175,430497685.0,-1036459736,-80.80000000000003,1.246,56.27,32523,32749,33102,1.3414634,-22.560976,14.512196,32750,32393,31308,1.03,0.69,-0.11,3.0,1.0,2.0,3.0
964868680,699,2020-07-28/964868680s699ms.jpg,964868680s699ms.jpg,431,28580,32180,32169,0.2866210999999999,0.30419922,2.059082,2.810792810315,2.983175280813,20.1926964953,430497885.0,-1036459463,-81.0,1.341,56.27,32062,32222,32685,33.47561,2.8658535,42.621952,32744,32389,31313,1.11,0.74,-0.11,3.0,1.0,2.0,3.0
964868680,699,2020-07-28/964868680s699ms.jpg,964868680s699ms.jpg,349,29959,32927,31765,-0.078125,0.50146484,1.3857422,-0.7661445312499999,4.917690173186,13.589488745629998,430497760.0,-1036459573,-80.80000000000003,1.257,56.27,32205,32821,32732,-3.0487804,0.0,33.902440000000006,32760,32440,31297,1.04,0.69,-0.11,3.0,1.0,2.0,3.0
964868698,717,2020-07-28/964868698s717ms.jpg,964868698s717ms.jpg,441,31186,32426,34286,0.1665039,-0.7294921999999999,0.7866211,1.632845470935,-7.153874683130001,7.714117810314999,430499783.0,-1036424578,-8.800000000000011,0.0,101.91,32385,32924,32307,-9.329268,25.914635,22.926828,32738,32560,31270,0.0,0.0,0.0,3.0,1.0,2.0,3.0
964868698,717,2020-07-28/964868698s717ms.jpg,964868698s717ms.jpg,641,31131,33035,34111,-0.13085938,-0.64404297,0.81347656,-1.283292138877,-6.3159039917505,7.977479907124,430499785.0,-1036424569,-8.800000000000011,0.0,101.91,31687,32842,32094,-4.3292685,38.902440000000006,65.48781,32745,32487,31287,0.0,0.0,0.0,3.0,1.0,2.0,3.0
964868698,717,2020-07-28/964868698s717ms.jpg,964868698s717ms.jpg,511,35314,32896,39952,-0.06298828,-3.4960938,-1.2290039,-0.6177040160619999,-34.284968263770004,-12.052411095935,430499785.0,-1036424577,-8.800000000000011,0.0,101.91,32410,31999,32296,47.073170000000005,26.585365000000003,21.40244,32745,32553,31272,0.0,0.0,0.0,3.0,1.0,2.0,3.0
964868698,717,2020-07-28/964868698s717ms.jpg,964868698s717ms.jpg,309,29637,32757,34080,0.0048828125,-0.62890625,1.5429688,0.047884033203125,-6.1674634765624985,15.131354982519998,430499783.0,-1036424583,-8.800000000000011,0.0,101.91,33168,32506,32544,16.158537,11.463414,-24.817074,32717,32548,31283,0.0,0.0,0.0,3.0,1.0,2.0,3.0
964868698,717,2020-07-28/964868698s717ms.jpg,964868698s717ms.jpg,319,28523,32792,34483,-0.012207031,-0.8256836,2.086914,-0.1197100805561499,-8.097190075939999,20.4656351781,430499783.0,-1036424583,-8.800000000000011,0.0,101.91,33130,33133,32688,-22.073172,2.682927,-22.5,32719,32550,31280,0.0,0.0,0.0,3.0,1.0,2.0,3.0
964868698,717,2020-07-28/964868698s717ms.jpg,964868698s717ms.jpg,65,28979,32719,32399,0.0234375,0.19189453,1.8642578,0.229843359375,1.8818424926245,18.28212375437,430499788.0,-1036424598,-8.800000000000011,0.0,101.91,32876,32783,32988,-0.73170733,-15.609756,-7.012194999999999,32714,32552,31292,0.0,0.0,0.0,3.0,1.0,2.0,3.0
964868698,717,2020-07-28/964868698s717ms.jpg,964868698s717ms.jpg,95,33980,33271,34771,-0.24609375,-0.9663086,-0.5776366999999999,-2.4133552734375,-9.47625023219,-5.664680944055,430499788.0,-1036424595,-8.800000000000011,0.0,101.91,32752,32508,32548,16.036585000000002,11.219512,0.5487805,32715,32559,31293,0.0,0.0,0.0,3.0,1.0,2.0,3.0
964868698,717,2020-07-28/964868698s717ms.jpg,964868698s717ms.jpg,115,28454,33257,31267,-0.23925781,0.7446289,2.1206055,-2.3463176024365,7.302315002185,20.796035926575,430499788.0,-1036424594,-8.800000000000011,0.0,101.91,32949,32782,32740,-0.6707316999999999,-0.4878049,-11.463414,32723,32584,31281,0.0,0.0,0.0,3.0,1.0,2.0,3.0
964868698,717,2020-07-28/964868698s717ms.jpg,964868698s717ms.jpg,299,36130,32217,33721,0.2685547,-0.45361328,-1.6274414,2.633621948755,-4.448426672311999,-15.95974820531,430499784.0,-1036424583,-8.800000000000011,0.0,101.91,33229,32175,32420,36.341465,19.024391,-28.536585,32716,32549,31285,0.0,0.0,0.0,3.0,1.0,2.0,3.0
964868698,717,2020-07-28/964868698s717ms.jpg,964868698s717ms.jpg,265,33966,33071,33923,-0.1484375,-0.5522461,-0.5708008000000001,-1.455674609375,-5.415684216564999,-5.59764366532,430499785.0,-1036424585,-8.800000000000011,0.0,101.91,33277,32242,32760,32.256096,-1.7073171000000005,-31.463415,32717,32553,31287,0.02,0.0,0.02,3.0,1.0,2.0,3.0
964868698,717,2020-07-28/964868698s717ms.jpg,964868698s717ms.jpg,205,29349,32661,32077,0.051757812,0.3491210999999999,1.6835938,0.5075707470498,3.423708435315,16.51041513877,430499788.0,-1036424591,-8.800000000000011,0.0,101.91,33047,32755,32666,0.9756098,4.02439,-17.439024,32713,32552,31289,0.0,0.0,0.0,3.0,1.0,2.0,3.0
964868698,717,2020-07-28/964868698s717ms.jpg,964868698s717ms.jpg,165,31444,32601,32880,0.08105469,-0.04296875,0.66064453,0.7948749756885,-0.4213794921875,6.4787096801245,430499788.0,-1036424593,-8.800000000000011,0.0,101.91,33124,32585,32742,11.341463,-0.6097561,-22.134146,32720,32575,31285,0.0,0.0,0.0,3.0,1.0,2.0,3.0
964868698,717,2020-07-28/964868698s717ms.jpg,964868698s717ms.jpg,235,27914,33025,32450,-0.12597656,0.16699219,2.3842773,-1.2354080321239995,1.6376339600635,23.381772984045,430499786.0,-1036424586,-8.800000000000011,0.0,101.91,33121,32684,32577,5.304878,9.45122,-21.951220000000003,32727,32582,31278,0.0,0.0,0.0,3.0,1.0,2.0,3.0
964868628,714,2020-07-28/964868628s714ms.jpg,964868628s714ms.jpg,749,30393,33342,33676,-0.28076172,-0.43164062,1.1738281000000002,-2.7533319214380003,-4.232948486122998,11.511321336865,430423819.0,-1036543982,-66.39999999999998,1.386,34.67,32628,32602,32500,10.304878,14.146341,8.109755999999999,32677,32525,31350,0.78,1.14,-0.3,1.0,0.0,0.0,0.0
964868628,714,2020-07-28/964868628s714ms.jpg,964868628s714ms.jpg,669,30441,32816,33486,-0.023925781,-0.3388672,1.1503906000000002,-0.23463176024365,-3.3231520268799994,11.28147797749,430423718.0,-1036544057,-66.0,1.546,31.02,33039,32555,32431,13.170732,18.353659,-16.951220000000003,32680,32546,31345,0.79,1.32,-0.31,1.0,0.0,0.0,0.0
964868628,714,2020-07-28/964868628s714ms.jpg,964868628s714ms.jpg,729,30595,32636,32903,0.063964844,-0.05419922,1.0751953,0.6272808374126,-0.5315127808129999,10.544063988745,430423792.0,-1036544005,-66.19999999999999,1.4169999999999998,34.3,32715,32529,32501,14.756098,14.085366,2.804878,32677,32529,31349,0.79,1.17,-0.3,1.0,0.0,0.0,0.0
964868628,714,2020-07-28/964868628s714ms.jpg,964868628s714ms.jpg,649,29724,33005,33538,-0.11621094,-0.3642578,1.5004883,-1.139640014751,-3.57214875437,14.714763587195,430423686.0,-1036544079,-66.0,1.5730000000000002,30.48,33088,32676,32458,5.792683,16.707317,-19.939024,32689,32578,31332,0.79,1.35,-0.31,1.0,0.0,0.0,0.0
964868628,714,2020-07-28/964868628s714ms.jpg,964868628s714ms.jpg,579,30987,33448,32980,-0.33251953,-0.091796875,0.88378906,-3.2609026488745,-0.9002198242187499,8.667009985248999,430423489.0,-1036544198,-65.80000000000001,1.5759999999999998,31.74,33320,32617,32555,9.390244,10.792683,-34.085365,32684,32566,31340,0.82,1.34,-0.31,1.0,0.0,0.0,0.0
964868628,714,2020-07-28/964868628s714ms.jpg,964868628s714ms.jpg,639,29866,32962,33240,-0.095214844,-0.21875,1.4311523000000002,-0.9337386499126,-2.1452046875,14.034809702794998,430423667.0,-1036544084,-66.0,1.581,30.5,33093,32677,32417,5.731707,19.207317,-20.243902,32688,32574,31335,0.8,1.36,-0.31,1.0,0.0,0.0,0.0
964868628,714,2020-07-28/964868628s714ms.jpg,964868628s714ms.jpg,948,30537,32536,33972,0.11279297,-0.5761719,1.1035156000000002,1.1061211792505,-5.650316163134999,10.821791258739998,430424183.0,-1036543591,-67.0,1.261,50.53,32620,32815,32776,-2.682927,-2.682927,8.597561,32685,32541,31349,0.97,0.8,-0.3,1.0,0.0,0.0,0.0
964868628,714,2020-07-28/964868628s714ms.jpg,964868628s714ms.jpg,908,30448,32871,32599,-0.05078125,0.09423828,1.1469726999999998,-0.4979939453125,0.924161828562,11.247959828455,430424137.0,-1036543673,-66.80000000000001,1.22,44.58,32344,32817,32674,-2.804878,3.5365853,25.426828,32675,32513,31359,0.85,0.86,-0.3,1.0,0.0,0.0,0.0
964868628,714,2020-07-28/964868628s714ms.jpg,964868628s714ms.jpg,857,30766,33181,32966,-0.20214844,-0.08496094,0.9916992,-1.982398999126,-0.8331822022509999,9.72524695968,430424104.0,-1036543733,-66.60000000000002,1.348,40.02,32446,32629,32605,8.658536999999999,7.743902,19.207317,32678,32529,31354,0.86,1.03,-0.3,1.0,0.0,0.0,0.0
964868628,714,2020-07-28/964868628s714ms.jpg,964868628s714ms.jpg,519,30742,32809,33182,-0.020507812,-0.19042969,1.003418,-0.2011129345497999,-1.8674773194385,9.840169129699998,430423247.0,-1036544364,-65.60000000000002,1.516,33.32,33270,32576,32552,11.890244,10.97561,-31.036585,32681,32548,31344,0.83,1.26,-0.31,1.0,0.0,0.0,0.0
964868628,714,2020-07-28/964868628s714ms.jpg,964868628s714ms.jpg,178,30651,33464,32827,-0.34033203,-0.017089844,1.0478516,-3.3375171019995,-0.1675941186626,10.275913893139998,430422229.0,-1036544967,-64.39999999999998,1.376,41.91,33483,32593,33013,10.853659,-17.134145999999998,-44.02439,32693,32539,31350,0.91,1.02,-0.31,1.0,0.0,0.0,0.0
964868628,714,2020-07-28/964868628s714ms.jpg,964868628s714ms.jpg,155,31471,33379,32762,-0.29882812,0.0146484375,0.64746094,-2.9305027829979995,0.143652099609375,6.349422827251001,430422168.0,-1036545008,-64.39999999999998,1.362,43.63,33414,32546,33011,13.719512,-17.012196,-39.817074,32688,32514,31355,0.93,0.98,-0.31,1.0,0.0,0.0,0.0
964868628,714,2020-07-28/964868628s714ms.jpg,964868628s714ms.jpg,85,31400,32553,33164,0.10449219,-0.18164062,0.6821289,1.0247183350635,-1.7812859861230002,6.689399377185,430421991.0,-1036545122,-64.19999999999999,1.416,45.89,33360,32513,33028,15.731708,-18.04878,-36.52439,32690,32483,31360,1.01,0.98,-0.33,1.0,0.0,0.0,0.0
964868628,714,2020-07-28/964868628s714ms.jpg,964868628s714ms.jpg,55,30511,32500,33749,0.1303711,-0.46728516,1.1162108999999998,1.278503747815,-4.582502014314,10.946289622485,430421954.0,-1036545143,-64.0,1.4580000000000002,44.69,33342,32554,33094,13.231708,-22.073172,-35.426829999999995,32696,32494,31355,1.02,1.03,-0.33,1.0,0.0,0.0,0.0
964868628,714,2020-07-28/964868628s714ms.jpg,964868628s714ms.jpg,248,30688,33306,33321,-0.2631835999999999,-0.25830078,1.0297851999999998,-2.58094945094,-2.533065344187,10.09874303158,430422428.0,-1036544825,-64.80000000000001,1.411,39.54,33361,32580,32805,11.646341,-4.4512196,-36.585365,32681,32515,31353,0.89,1.08,-0.31,1.0,0.0,0.0,0.0
964868628,714,2020-07-28/964868628s714ms.jpg,964868628s714ms.jpg,456,30129,33631,33326,-0.421875,-0.2607422,1.3027343999999998,-4.13718046875,-2.55700749563,12.77546030376,430422997.0,-1036544540,-65.39999999999998,1.476,33.36,33178,32625,32565,8.902439,10.182927,-25.426828,32681,32539,31347,0.81,1.23,-0.31,1.0,0.0,0.0,0.0
964868628,714,2020-07-28/964868628s714ms.jpg,964868628s714ms.jpg,436,29748,33313,32594,-0.26660156,0.09667969,1.4887695,-2.614468188374,0.9481038819385,14.599841417175,430422915.0,-1036544592,-65.39999999999998,1.453,33.18,33132,32664,32563,6.52439,10.304878,-22.621952,32689,32565,31343,0.79,1.21,-0.31,1.0,0.0,0.0,0.0
964868628,714,2020-07-28/964868628s714ms.jpg,964868628s714ms.jpg,268,30666,33512,33473,-0.36376953,-0.33251953,1.0405273000000002,-3.5673604613745,-3.2609026488745,10.204087046544998,430422490.0,-1036544787,-64.80000000000001,1.4069999999999998,39.0,33282,32595,32770,10.731708,-2.317073,-31.768293,32683,32527,31352,0.88,1.09,-0.31,1.0,0.0,0.0,0.0
964868628,714,2020-07-28/964868628s714ms.jpg,964868628s714ms.jpg,308,30682,33337,33183,-0.2783203,-0.19091797,1.0327148000000002,-2.729389769995,-1.8722657105005,10.12747259342,430422558.0,-1036544735,-65.0,1.409,40.42,33133,32631,32665,8.536586,4.0853660000000005,-22.682926,32688,32559,31344,0.91,1.07,-0.32,1.0,0.0,0.0,0.0
964868628,714,2020-07-28/964868628s714ms.jpg,964868628s714ms.jpg,349,31008,33544,32542,-0.37939453,0.12207031,0.87353516,-3.7205893676245,1.1971008055615,8.566453576813997,430422633.0,-1036544671,-65.0,1.482,40.56,33091,32693,32632,4.756098000000001,6.097561,-20.121952,32678,32520,31351,0.96,1.12,-0.3,1.0,0.0,0.0,0.0
964868665,718,2020-07-28/964868665s718ms.jpg,964868665s718ms.jpg,665,31987,33260,33748,-0.24072266,-0.46679688,0.3955078,-2.360682873689,-4.577713623252,3.87860656687,430491110.0,-1036484930,-144.8,5.885,39.87,33023,32604,32568,10.182927,10.0,-15.97561,32691,32616,31230,3.77,4.51,-0.32,2.0,1.0,1.0,2.0
964868665,718,2020-07-28/964868665s718ms.jpg,964868665s718ms.jpg,677,31768,33121,33654,-0.17285156,-0.42089844,0.5024414,-1.6950947508739995,-4.127603686625998,4.92726695531,430491119.0,-1036484887,-144.8,5.874,40.11,33031,32633,32557,8.414634,10.670732,-16.463414999999998,32689,32609,31231,3.78,4.49,-0.32,2.0,1.0,1.0,2.0
964868665,718,2020-07-28/964868665s718ms.jpg,964868665s718ms.jpg,727,30089,33299,32809,-0.25976562,-0.008300781,1.3222656000000002,-2.5474305173729994,-0.0814028539936499,12.96699594624,430491125.0,-1036484708,-145.0,5.694,39.63,33139,32830,32581,-3.597561,9.207317,-23.04878,32695,32616,31224,3.63,4.38,-0.31,2.0,1.0,1.0,2.0
964868665,718,2020-07-28/964868665s718ms.jpg,964868665s718ms.jpg,737,30640,33406,33246,-0.31201172,-0.22167969,1.0532226999999998,-3.059789733938,-2.1739351319385003,10.328586390955,430491092.0,-1036484684,-145.0,5.611000000000001,39.28,33179,32727,32572,2.682927,9.756098,-25.487804,32693,32608,31226,3.55,4.34,-0.31,2.0,1.0,1.0,2.0
964868665,718,2020-07-28/964868665s718ms.jpg,964868665s718ms.jpg,513,31640,33617,32118,-0.41503906,0.32910156,0.5649414,-4.070142797749,3.2273838133740003,5.54018258031,430490674.0,-1036485742,-144.39999999999995,6.064,35.73,33280,32703,32609,4.1463413000000005,7.5,-31.646341,32683,32606,31238,3.54,4.92,-0.34,2.0,1.0,1.0,2.0
964868665,718,2020-07-28/964868665s718ms.jpg,964868665s718ms.jpg,957,30623,33029,33113,-0.12792969,-0.15673828,1.0615233999999998,-1.2545616944385,-1.5370774535620002,10.40998845061,430491447.0,-1036484045,-146.0,5.104,17.52,32818,32643,32520,7.804877999999999,12.926829,-3.4756098,32701,32609,31224,1.53,4.86,-0.3,2.0,1.0,1.0,2.0
964868665,718,2020-07-28/964868665s718ms.jpg,964868665s718ms.jpg,927,30935,33248,33049,-0.23486328,-0.12548828,0.9091796999999998,-2.303221984812,-1.2306196410619998,8.916007105004999,430491324.0,-1036484149,-146.0,5.17,19.51,32877,32542,32530,13.963414000000002,12.317073,-7.0731707,32698,32606,31225,1.72,4.87,-0.3,2.0,1.0,1.0,2.0
964868665,718,2020-07-28/964868665s718ms.jpg,964868665s718ms.jpg,897,30658,32890,33411,-0.060058594,-0.3022460999999999,1.0444336,-0.5889736108500999,-2.964021716565,10.24239476344,430491181.0,-1036484266,-145.8,5.215,21.69,32898,32534,32506,14.45122,13.780488,-8.353659,32698,32612,31224,1.92,4.84,-0.3,2.0,1.0,1.0,2.0
964868665,718,2020-07-28/964868665s718ms.jpg,964868665s718ms.jpg,877,30761,32879,33304,-0.0546875,-0.25,0.9941406,-0.5363011718749999,-2.4516625,9.74918891499,430491091.0,-1036484356,-145.8,5.246,23.73,32998,32534,32550,14.45122,11.097561,-14.45122,32702,32625,31218,2.11,4.8,-0.3,2.0,1.0,1.0,2.0
964868665,718,2020-07-28/964868665s718ms.jpg,964868665s718ms.jpg,787,30690,31864,32786,0.44091797,0.0029296875,1.0288086,4.323928210500498,0.028730419921875,10.08916585719,430490871.0,-1036484646,-145.60000000000005,5.337999999999999,36.11,33124,32472,32638,18.231707,5.731707,-22.134146,32697,32620,31220,3.14,4.31,-0.31,2.0,1.0,1.0,2.0
964868665,718,2020-07-28/964868665s718ms.jpg,964868665s718ms.jpg,191,37109,31941,34398,0.4033203,-0.7841796999999999,-2.1054688,3.955221019995,-7.690175855004999,-20.64759560752,430489015.0,-1036487546,-143.8,5.774,6.04,32695,32464,32991,18.719513,-15.792682999999998,4.02439,32714,32569,31269,0.6,5.74,-0.3,2.0,1.0,1.0,2.0
964868665,718,2020-07-28/964868665s718ms.jpg,964868665s718ms.jpg,181,35606,32193,35462,0.28027344,-1.3037108999999998,-1.371582,2.748543530376,-12.785036497485,-13.4506246203,430488959.0,-1036487579,-143.8,5.784,5.83,32624,32486,32943,17.378048,-12.865853,8.353659,32715,32562,31270,0.58,5.75,-0.3,2.0,1.0,1.0,2.0
964868665,718,2020-07-28/964868665s718ms.jpg,964868665s718ms.jpg,91,29982,32735,32622,0.015625,0.08300781,1.3745117,0.15322890625,0.8140285399364999,13.479355162805,430488350.0,-1036487914,-143.8,5.541,10.4,31892,33033,32518,-15.97561,13.04878,52.987804,32723,32586,31257,0.99,5.45,-0.31,2.0,1.0,1.0,2.0
964868665,718,2020-07-28/964868665s718ms.jpg,964868665s718ms.jpg,11,31579,33424,33567,-0.32080078,-0.37841797,0.59472656,-3.145980969187,-3.7110125855005,5.832275219624,430487994.0,-1036488131,-143.60000000000005,5.267,12.25,31858,32759,32183,0.73170733,33.47561,55.060974,32717,32598,31250,1.11,5.14,-0.31,2.0,1.0,1.0,2.0
964868665,718,2020-07-28/964868665s718ms.jpg,964868665s718ms.jpg,1,30659,33555,33028,-0.38476562,-0.115234375,1.0439453,-3.773261767373,-1.13006318359375,10.237606176245,430487951.0,-1036488152,-143.60000000000005,5.152,12.58,31899,32787,32187,-0.9756098,33.23171,52.560974,32714,32600,31249,1.12,5.02,-0.31,2.0,1.0,1.0,2.0
964868665,718,2020-07-28/964868665s718ms.jpg,964868665s718ms.jpg,252,33986,32018,32153,0.36572266,0.31201172,-0.5805664,3.586514123689,3.059789733938,-5.6934114865600005,430489339.0,-1036487287,-143.8,5.622000000000001,8.77,33031,32781,32985,-0.6097561,-15.426829,-16.463414999999998,32712,32582,31260,0.85,5.55,-0.31,2.0,1.0,1.0,2.0
964868665,718,2020-07-28/964868665s718ms.jpg,964868665s718ms.jpg,472,31383,33187,32801,-0.20507812,-0.0043945312,0.6904296999999999,-2.011129345498,-0.04309562939248,6.770802417504999,430490610.0,-1036485914,-144.39999999999995,6.154,33.66,33638,32626,32937,8.841463000000001,-12.5,-53.47561,32694,32642,31236,3.41,5.12,-0.33,2.0,1.0,1.0,2.0
964868665,718,2020-07-28/964868665s718ms.jpg,964868665s718ms.jpg,462,33993,32965,33555,-0.09667969,-0.3725585999999999,-0.5839844,-0.9481038819385,-3.65355179469,-5.726930616259999,430490526.0,-1036486035,-144.39999999999995,6.002999999999999,31.66,33623,32544,33018,13.841463,-17.439024,-52.560974,32691,32628,31239,3.15,5.1,-0.33,2.0,1.0,1.0,2.0
964868665,718,2020-07-28/964868665s718ms.jpg,964868665s718ms.jpg,382,31371,33030,33435,-0.12841797,-0.31396484,0.69628906,-1.2593500855004998,-3.078943298186,6.828263110249,430489999.0,-1036486606,-144.2,5.559,23.45,33725,32608,33231,9.939024,-30.426828000000004,-58.780487,32692,32595,31255,2.21,5.09,-0.33,2.0,1.0,1.0,2.0
964868665,718,2020-07-28/964868665s718ms.jpg,964868665s718ms.jpg,292,28320,32746,33670,0.010253906,-0.42871094,2.1860352,0.1005564672748999,-4.204218139750998,21.43768209408,430489562.0,-1036487057,-144.0,5.509,13.53,33258,32919,33191,-9.02439,-27.987804,-30.304878,32709,32597,31260,1.28,5.35,-0.31,2.0,1.0,1.0,2.0
964868578,697,2020-07-28/964868578s697ms.jpg,964868578s697ms.jpg,649,30045,32728,32872,0.019042969,-0.0390625,1.34375,0.18674773194385,-0.383072265625,13.1776859375,430432905.0,-1036560920,23.600000000000023,2.776,277.03,32886,32668,32886,6.280488,-9.390244,-7.621950999999999,32755,32560,31193,-2.75,0.33,-0.08,1.0,0.0,0.0,0.0
964868578,697,2020-07-28/964868578s697ms.jpg,964868578s697ms.jpg,670,30286,32382,33177,0.18798828,-0.18798828,1.2260742,1.843535266062,-1.843535266062,12.02368055343,430432857.0,-1036561052,23.600000000000023,2.787,276.66,33063,32678,32876,5.6707315000000005,-8.780488,-18.414635,32751,32536,31194,-2.76,0.32,-0.08,1.0,0.0,0.0,0.0
964868578,697,2020-07-28/964868578s697ms.jpg,964868578s697ms.jpg,700,31928,32612,33933,0.075683594,-0.5571289,0.4243164000000001,0.7422025171000999,-5.463568127185,4.161122424059998,430432777.0,-1036561221,23.600000000000023,2.801,275.03,33242,32642,32856,7.865854,-7.560975599999999,-29.329268,32748,32528,31197,-2.79,0.24,-0.09,1.0,0.0,0.0,0.0
964868578,697,2020-07-28/964868578s697ms.jpg,964868578s697ms.jpg,609,30740,32561,33119,0.10058594,-0.15966797,1.0043945,0.986411108501,-1.5658078980005,9.849745323425,430432983.0,-1036560707,23.79999999999995,2.7910000000000004,277.9,32666,32690,32824,4.939024400000001,-5.609756,5.792683,32749,32526,31198,-2.76,0.38,-0.08,1.0,0.0,0.0,0.0
964868578,697,2020-07-28/964868578s697ms.jpg,964868578s697ms.jpg,548,30528,32891,33016,-0.060546875,-0.109375,1.1079101999999998,-0.59376201171875,-1.07260234375,10.86488756283,430433104.0,-1036560382,23.79999999999995,2.837,279.99,32401,32856,32769,-5.1829267,-2.2560976000000004,21.951220000000003,32749,32528,31197,-2.79,0.49,-0.07,1.0,0.0,0.0,0.0
964868578,697,2020-07-28/964868578s697ms.jpg,964868578s697ms.jpg,538,30267,33006,33060,-0.11669922,-0.13085938,1.2353516000000002,-1.144428405813,-1.283292138877,12.114660768139998,430433122.0,-1036560343,23.79999999999995,2.861,280.11,32360,32867,32775,-5.8536587,-2.621951,24.451220000000003,32749,32524,31196,-2.81,0.5,-0.07,1.0,0.0,0.0,0.0
964868578,697,2020-07-28/964868578s697ms.jpg,964868578s697ms.jpg,985,30978,32923,33145,-0.076171875,-0.17236328,0.8881836,-0.74699091796875,-1.690306359812,8.71010570094,430431607.0,-1036562615,22.79999999999995,1.905,253.7,32719,32637,32689,8.170732000000001,2.621951,2.5609756,32754,32554,31181,-1.82,-0.53,-0.11,1.0,0.0,0.0,0.0
964868578,697,2020-07-28/964868578s697ms.jpg,964868578s697ms.jpg,815,30924,32745,32791,0.0107421875,0.00048828125,0.9145508,0.105344873046875,0.0047884033203125,8.96867960282,430432373.0,-1036561694,23.20000000000005,2.341,261.37,33449,32747,32881,1.4634147,-9.085366,-41.951218,32747,32538,31190,-2.31,-0.35,-0.09,1.0,0.0,0.0,0.0
964868578,697,2020-07-28/964868578s697ms.jpg,964868578s697ms.jpg,771,30487,32660,32373,0.052246094,0.20458984,1.1279297,0.5123591577251,2.006340954436,11.061211792505,430432550.0,-1036561523,23.399999999999977,2.593,266.81,33362,32729,32869,2.5609756,-8.353659,-36.646343,32748,32532,31192,-2.58,-0.14,-0.09,1.0,0.0,0.0,0.0
964868578,697,2020-07-28/964868578s697ms.jpg,964868578s697ms.jpg,885,31785,32757,34138,0.0048828125,-0.65722656,0.49414062,0.047884033203125,-6.445190844623999,4.845864111122999,430431955.0,-1036562141,23.0,2.033,252.95,33389,32605,32769,10.121951,-2.2560976000000004,-38.292683,32745,32532,31188,-1.94,-0.59,-0.1,1.0,0.0,0.0,0.0
964868578,697,2020-07-28/964868578s697ms.jpg,964868578s697ms.jpg,995,30763,32977,33039,-0.10253906,-0.12060547,0.99316406,-1.005564672749,-1.1827356323755,9.739612328999,430431579.0,-1036562659,22.79999999999995,1.89,254.09,32669,32635,32661,8.292683,4.3292685,5.609756,32756,32563,31180,-1.81,-0.51,-0.12,1.0,0.0,0.0,0.0
964868578,697,2020-07-28/964868578s697ms.jpg,964868578s697ms.jpg,178,30446,33031,32902,-0.12890625,-0.053710938,1.1479492,-1.2641384765625,-0.5267243701377,11.25753602218,430434149.0,-1036558754,24.600000000000023,1.531,285.82,32792,32727,32770,2.682927,-2.317073,-1.8902439,32752,32543,31177,-1.47,0.41,-0.05,1.0,0.0,0.0,0.0
964868578,697,2020-07-28/964868578s697ms.jpg,964868578s697ms.jpg,138,31022,32749,33180,0.0087890625,-0.18945312,0.8666992,0.086191259765625,-1.857900439248,8.499415709680001,430434288.0,-1036558585,24.600000000000023,1.5,284.31,32987,32627,32809,8.780488,-4.6951220000000005,-13.780488,32748,32529,31183,-1.45,0.37,-0.04,1.0,0.0,0.0,0.0
964868578,697,2020-07-28/964868578s697ms.jpg,964868578s697ms.jpg,118,31098,32705,33471,0.030273438,-0.33154297,0.82958984,0.2968810107627,-3.2513258667505003,8.135497204436001,430434389.0,-1036558514,24.600000000000023,1.537,284.95,33108,32634,32806,8.353659,-4.512194999999999,-21.158537,32746,32528,31185,-1.48,0.39,-0.04,1.0,0.0,0.0,0.0
964868578,697,2020-07-28/964868578s697ms.jpg,964868578s697ms.jpg,218,30350,33123,32339,-0.17382812,0.2211913999999999,1.1948242,-1.704671532998,2.16914664281,11.71722274093,430434028.0,-1036558919,24.399999999999977,1.715,287.17,32692,32730,32672,2.5,3.6585367,4.207317,32748,32531,31183,-1.63,0.5,-0.06,1.0,0.0,0.0,0.0
964868578,697,2020-07-28/964868578s697ms.jpg,964868578s697ms.jpg,228,30438,33035,32472,-0.13085938,0.15625,1.1518555,-1.283292138877,1.5322890625,11.295843739074998,430434005.0,-1036558955,24.399999999999977,1.739,287.76,32690,32737,32704,2.0731707,1.7073171000000005,4.3292685,32750,32542,31178,-1.65,0.53,-0.06,1.0,0.0,0.0,0.0
964868578,697,2020-07-28/964868578s697ms.jpg,964868578s697ms.jpg,488,31861,33207,33658,-0.21484375,-0.42285156,0.45703125,-2.1068974609375,-4.146757250874,4.4819455078125,430433195.0,-1036560122,24.0,2.74,278.68,32197,32745,32678,1.5853659,3.292683,34.390244,32754,32551,31189,-2.7,0.41,-0.07,1.0,0.0,0.0,0.0
964868578,697,2020-07-28/964868578s697ms.jpg,964868578s697ms.jpg,378,30958,32830,33635,-0.030761719,-0.4116210999999999,0.8979492,-0.30166941163135,-4.036624060315,8.805873522179999,430433518.0,-1036559618,24.20000000000005,2.168,283.37,32274,32842,32722,-4.3292685,0.6097561,29.695122,32748,32528,31188,-2.1,0.5,-0.07,1.0,0.0,0.0,0.0
964868578,697,2020-07-28/964868578s697ms.jpg,964868578s697ms.jpg,288,30614,32928,33248,-0.07861328,-0.22265625,1.065918,-0.770932922312,-2.1835119140625,10.4530847547,430433820.0,-1036559188,24.399999999999977,2.096,285.9,32522,32821,32739,-3.0487804,-0.42682928,14.573171,32754,32554,31177,-2.01,0.57,-0.06,1.0,0.0,0.0,0.0
964868578,697,2020-07-28/964868578s697ms.jpg,964868578s697ms.jpg,268,30789,33041,32850,-0.13378906,-0.028320312,0.98046875,-1.312022485249,-0.2777273876748,9.6151138671875,430433890.0,-1036559098,24.399999999999977,2.045,286.06,32591,32763,32675,0.4878049,3.4756098,10.365853,32748,32522,31183,-1.96,0.56,-0.06,1.0,0.0,0.0,0.0
964868577,730,2020-07-28/964868577s730ms.jpg,964868577s730ms.jpg,743,30687,32610,33283,0.076660156,-0.2397461,1.0302734,0.7517793188373999,-2.351106091565,10.10353063811,430435751.0,-1036557200,25.600000000000023,1.055,306.12,32553,32803,32893,-1.9512196,-9.817073,12.682927,32763,32548,31188,-0.85,0.62,-0.04,1.0,0.0,0.0,0.0
964868577,730,2020-07-28/964868577s730ms.jpg,964868577s730ms.jpg,723,30298,32933,32875,-0.08105469,-0.040527344,1.2202148000000002,-0.7948749756885,-0.3974374780376,11.96621946842,430435742.0,-1036557166,25.600000000000023,1.0490000000000002,306.45,32457,32820,32841,-2.987805,-6.6463413000000005,18.536585,32754,32517,31196,-0.84,0.62,-0.04,1.0,0.0,0.0,0.0
964868577,730,2020-07-28/964868577s730ms.jpg,964868577s730ms.jpg,602,30908,33135,33281,-0.1796875,-0.23876953,0.9223633,-1.762132421875,-2.3415292113745,9.045294055945,430435680.0,-1036556945,25.600000000000023,0.98,308.78,32309,32751,32908,1.2195122,-10.731708,27.560976,32759,32513,31192,-0.76,0.61,-0.04,1.0,0.0,0.0,0.0
964868577,730,2020-07-28/964868577s730ms.jpg,964868577s730ms.jpg,632,30970,32998,33321,-0.11279297,-0.25830078,0.89208984,-1.1061211792505,-2.533065344187,8.748412829435999,430435704.0,-1036557005,25.600000000000023,1.007,308.27,32301,32803,32880,-1.9512196,-9.02439,28.04878,32757,32511,31193,-0.79,0.62,-0.04,1.0,0.0,0.0,0.0
964868577,730,2020-07-28/964868577s730ms.jpg,964868577s730ms.jpg,763,30647,32426,32746,0.1665039,0.022460938,1.0498047,1.632845470935,0.2202665576377,10.295067261255,430435756.0,-1036557246,25.399999999999977,1.064,305.45,32634,32779,32891,-0.4878049,-9.695122,7.743902,32753,32507,31198,-0.86,0.61,-0.04,1.0,0.0,0.0,0.0
964868577,730,2020-07-28/964868577s730ms.jpg,964868577s730ms.jpg,783,30988,32573,33184,0.09472656,-0.19140625,0.8833008,0.928950219624,-1.8770541015625,8.66222179032,430435766.0,-1036557294,25.399999999999977,1.078,304.97,32703,32769,32897,0.12195122,-10.060976,3.5365853,32760,32539,31194,-0.88,0.61,-0.04,1.0,0.0,0.0,0.0
964868577,730,2020-07-28/964868577s730ms.jpg,964868577s730ms.jpg,191,30317,33082,33224,-0.1538086,-0.2109375,1.2109375,-1.50834710719,-2.068590234375,11.875240234375,430435282.0,-1036556431,25.79999999999995,0.0,146.73,32700,32842,32606,-4.3292685,7.6829267,3.719512200000001,32758,32528,31171,-0.29,0.1,-0.03,1.0,0.0,0.0,0.0
964868577,730,2020-07-28/964868577s730ms.jpg,964868577s730ms.jpg,181,30224,32864,33003,-0.04736328,-0.103027344,1.2563476999999998,-0.464475109812,-1.0103531030375998,12.320562172205,430435271.0,-1036556412,25.79999999999995,0.0,146.73,32781,32815,32602,-2.682927,7.9268293,-1.2195122,32760,32534,31170,-0.28,0.08,-0.03,1.0,0.0,0.0,0.0
964868577,730,2020-07-28/964868577s730ms.jpg,964868577s730ms.jpg,131,31374,32844,33657,-0.037597656,-0.42236328,0.6948241999999999,-0.3687070532124,-4.141968859812,6.813897740930001,430435232.0,-1036556357,25.79999999999995,0.0,146.73,33021,32728,32627,2.621951,6.402439,-15.853659,32758,32520,31171,0.09,-0.22,-0.04,1.0,0.0,0.0,0.0
964868577,730,2020-07-28/964868577s730ms.jpg,964868577s730ms.jpg,101,30625,32936,33115,-0.08251953,-0.15771484,1.0605468999999998,-0.8092401488744999,-1.5466542356859998,10.400412256885,430435211.0,-1036556339,25.79999999999995,0.0,146.73,33143,32752,32723,1.1585366,0.5487805,-23.292683,32755,32516,31175,0.08,-0.19,-0.04,1.0,0.0,0.0,0.0
964868577,730,2020-07-28/964868577s730ms.jpg,964868577s730ms.jpg,51,30765,32981,33442,-0.10449219,-0.3173828,0.9921875,-1.0247183350635,-3.112462035620001,9.730035546875,430435202.0,-1036556283,25.600000000000023,0.0,146.73,33170,32744,32759,1.6463414,-1.6463414,-24.939024,32760,32539,31171,0.05,-0.12,-0.04,1.0,0.0,0.0,0.0
964868577,730,2020-07-28/964868577s730ms.jpg,964868577s730ms.jpg,21,30769,32830,32808,-0.030761719,-0.0078125,0.9902344,-0.30166941163135,-0.076614453125,9.71088217876,430435215.0,-1036556243,25.600000000000023,0.0,146.73,33146,32700,32801,4.3292685,-4.207317,-23.475609,32752,32512,31180,0.04,-0.1,-0.05,1.0,0.0,0.0,0.0
964868577,730,2020-07-28/964868577s730ms.jpg,964868577s730ms.jpg,241,31047,33123,33526,-0.17382812,-0.35839844,0.8544921999999998,-1.704671532998,-3.5146880616259994,8.379705933130001,430435326.0,-1036556492,25.79999999999995,0.429,296.36,32420,32718,32535,3.2317073,12.012196,20.792683,32763,32531,31173,-0.38,0.19,-0.03,1.0,0.0,0.0,0.0
964868577,730,2020-07-28/964868577s730ms.jpg,964868577s730ms.jpg,461,30687,32543,33190,0.109375,-0.19433594,1.0302734,1.07260234375,-1.905784546001,10.10353063811,430435555.0,-1036556669,25.600000000000023,0.8140000000000001,311.49,32110,32888,32753,-7.134146,-1.2804878,39.69512,32763,32509,31183,-0.6,0.53,-0.04,1.0,0.0,0.0,0.0
964868577,730,2020-07-28/964868577s730ms.jpg,964868577s730ms.jpg,451,30804,32481,33070,0.13964844,-0.13574219,0.97314453,1.3694833741260002,-1.3311761475635,9.5432878051245,430435543.0,-1036556655,25.600000000000023,0.8079999999999999,311.43,32121,32872,32714,-6.1585364,1.097561,39.02439,32766,32522,31181,-0.6,0.53,-0.04,1.0,0.0,0.0,0.0
964868577,730,2020-07-28/964868577s730ms.jpg,964868577s730ms.jpg,441,30995,32451,32901,0.15429688,-0.0532226559999999,0.8798828000000002,1.5131354982519998,-0.5219359594624,8.628702660619997,430435537.0,-1036556658,25.600000000000023,0.8009999999999999,310.83,32158,32845,32701,-4.512194999999999,1.8902439,36.76829,32764,32512,31183,-0.6,0.52,-0.04,1.0,0.0,0.0,0.0
964868577,730,2020-07-28/964868577s730ms.jpg,964868577s730ms.jpg,371,30182,32984,32340,-0.10595703,0.22070312,1.2768555,-1.0390835082494998,2.164358251748,12.521674989075,430435491.0,-1036556613,25.79999999999995,0.669,307.85,32077,32860,32568,-5.4268293,10.0,41.707317,32761,32503,31183,-0.52,0.41,-0.03,1.0,0.0,0.0,0.0
964868577,730,2020-07-28/964868577s730ms.jpg,964868577s730ms.jpg,351,31119,32671,33137,0.046875,-0.16845703,0.81933594,0.45968671875,-1.6519991332495,8.034940796000999,430435441.0,-1036556578,25.79999999999995,0.618,306.0,32071,32822,32569,-3.109756,9.939024,42.073170000000005,32765,32526,31176,-0.5,0.36,-0.03,1.0,0.0,0.0,0.0
964868577,730,2020-07-28/964868577s730ms.jpg,964868577s730ms.jpg,311,31013,32865,33246,-0.047851562,-0.22167969,0.87109375,-0.4692635204873,-2.1739351319385003,8.542511523437499,430435386.0,-1036556548,25.79999999999995,0.524,302.93,32072,32773,32504,-0.12195122,13.902439,42.012196,32765,32532,31176,-0.43,0.28,-0.03,1.0,0.0,0.0,0.0
964868577,730,2020-07-28/964868577s730ms.jpg,964868577s730ms.jpg,271,30544,32886,32964,-0.05810547,-0.083984375,1.1000976999999998,-0.5698200073755,-0.82360537109375,10.788273109705,430435354.0,-1036556520,25.79999999999995,0.466,298.48,32259,32767,32574,0.24390244,9.634147,30.609756,32757,32503,31180,-0.4,0.22,-0.03,1.0,0.0,0.0,0.0
964868624,710,2020-07-28/964868624s710ms.jpg,964868624s710ms.jpg,721,30687,32614,32168,0.07470703,0.3046875,1.0302734,0.7326256957494999,2.987963671875,10.10353063811,430420616.0,-1036541947,-48.600000000000016,2.131,205.8,32431,32557,32908,13.04878,-10.731708,20.121952,32721,32441,31339,-0.92,-1.91,-0.22,1.0,0.0,0.0,1.0
964868624,710,2020-07-28/964868624s710ms.jpg,964868624s710ms.jpg,536,29658,32893,33402,-0.061523438,-0.29785156,1.5327148000000002,-0.6033388232626999,-2.920926000874,15.03079759342,430421091.0,-1036541537,-48.0,1.251,252.32,32383,32840,32797,-4.207317,-3.9634147,23.04878,32723,32435,31335,-1.19,-0.37,-0.2,1.0,0.0,0.0,1.0
964868624,710,2020-07-28/964868624s710ms.jpg,964868624s710ms.jpg,617,29758,32373,31841,0.19238281,0.46435547,1.4838867,1.8866308836865,4.5537715698755,14.551957506555,430420934.0,-1036541703,-48.19999999999999,1.606,227.78,32278,32720,32881,3.109756,-9.085366,29.451220000000003,32726,32452,31333,-1.18,-1.07,-0.21,1.0,0.0,0.0,1.0
964868624,710,2020-07-28/964868624s710ms.jpg,964868624s710ms.jpg,741,30408,32588,33768,0.087402344,-0.4765625,1.1665039,0.8571241967875999,-4.673481640625,11.439495470935,430420561.0,-1036541977,-48.600000000000016,2.177,202.98,32561,32766,33015,0.30487806,-17.256098,12.195122,32725,32449,31338,-0.84,-2.0,-0.22,1.0,0.0,0.0,1.0
964868624,710,2020-07-28/964868624s710ms.jpg,964868624s710ms.jpg,873,31003,32482,33516,0.13916016,-0.35351562,0.87597656,1.364694983064,-3.4668039548729994,8.590395532123999,430420320.0,-1036542008,-49.0,2.0580000000000003,193.19,33038,32646,33179,7.621950999999999,-27.256098,-16.890244,32714,32443,31346,-0.46,-2.0,-0.22,1.0,0.0,0.0,1.0
964868624,710,2020-07-28/964868624s710ms.jpg,964868624s710ms.jpg,202,30548,32770,33421,-0.0014648438,-0.3071289,1.0981445,-0.01436521045127,-3.0119056271849995,10.769118760925,430421137.0,-1036540676,-47.0,1.022,301.36,32241,32720,32805,3.109756,-4.4512196,31.707317,32730,32451,31327,-0.87,0.53,-0.19,1.0,0.0,0.0,1.0
964868624,710,2020-07-28/964868624s710ms.jpg,964868624s710ms.jpg,148,32045,32678,34569,0.04345703,-0.8676758,0.3671875,0.4261678832495,-8.508992884069999,3.600879296875,430421155.0,-1036540512,-46.80000000000001,1.148,321.39,32015,32752,32647,1.1585366,5.1829267,45.487804,32731,32459,31326,-0.71,0.89,-0.19,1.0,0.0,0.0,1.0
964868624,710,2020-07-28/964868624s710ms.jpg,964868624s710ms.jpg,98,30776,33030,32916,-0.12841797,-0.060546875,0.9868164,-1.2593500855004998,-0.59376201171875,9.67736304906,430421077.0,-1036540445,-46.600000000000016,1.21,326.53,31935,32772,32583,-0.06097561,9.085366,50.365852,32730,32470,31323,-0.66,1.0,-0.19,1.0,0.0,0.0,1.0
964868624,710,2020-07-28/964868624s710ms.jpg,964868624s710ms.jpg,88,31282,32983,33174,-0.10546875,-0.18652344,0.7397461,-1.0342951171875,-1.829170092876,7.2544310915649985,430421069.0,-1036540409,-46.600000000000016,1.186,328.37,31947,32776,32560,-0.30487806,10.487804,49.634148,32726,32463,31325,-0.62,1.01,-0.19,1.0,0.0,0.0,1.0
964868624,710,2020-07-28/964868624s710ms.jpg,964868624s710ms.jpg,37,30383,33121,32920,-0.17285156,-0.0625,1.1787108999999998,-1.6950947508739995,-0.612915625,11.559205247485002,430421039.0,-1036540168,-46.399999999999984,0.97,347.05,32022,32846,32606,-4.5731707,7.6829267,45.060974,32735,32509,31313,-0.21,0.94,-0.18,1.0,0.0,0.0,1.0
964868624,710,2020-07-28/964868624s710ms.jpg,964868624s710ms.jpg,27,30651,33135,32931,-0.1796875,-0.067871094,1.0478516,-1.762132421875,-0.6655880639751001,10.275913893139998,430421028.0,-1036540136,-46.399999999999984,0.947,348.88,32071,32848,32619,-4.6951220000000005,6.890244,42.073170000000005,32734,32509,31315,-0.18,0.92,-0.18,1.0,0.0,0.0,1.0
964868624,710,2020-07-28/964868624s710ms.jpg,964868624s710ms.jpg,222,30613,32781,33151,-0.0068359375,-0.17529297,1.0664062,-0.0670376464843749,-1.7190368042504998,10.45787236123,430421146.0,-1036540721,-47.0,0.987,299.83,32400,32723,32714,2.9268293,1.097561,22.012196,32732,32463,31322,-0.85,0.49,-0.19,1.0,0.0,0.0,1.0
964868624,710,2020-07-28/964868624s710ms.jpg,964868624s710ms.jpg,232,31216,32418,33137,0.17041016,-0.16845703,0.77197266,1.671152795564,-1.6519991332495,7.570465686188999,430421147.0,-1036540745,-47.0,0.972,298.42,32469,32660,32772,6.768292999999999,-2.4390244,17.804878,32738,32479,31318,-0.85,0.46,-0.2,1.0,0.0,0.0,1.0
964868624,710,2020-07-28/964868624s710ms.jpg,964868624s710ms.jpg,118,30218,33244,33115,-0.23291016,-0.15771484,1.2592773000000002,-2.284068420564,-1.5466542356859998,12.349291734044998,430421099.0,-1036540475,-46.80000000000001,1.2,326.17,31903,32755,32711,0.9756098,1.2804878,52.317074,32731,32470,31324,-0.66,0.99,-0.19,1.0,0.0,0.0,1.0
964868624,710,2020-07-28/964868624s710ms.jpg,964868624s710ms.jpg,242,31367,32416,33166,0.17138672,-0.18261719,0.6982421999999999,1.6807295776879998,-1.7908628663135,6.847416870630001,430421150.0,-1036540779,-47.0,0.963,296.82,32509,32590,32817,11.036586,-5.1829267,15.365853,32737,32471,31320,-0.85,0.43,-0.2,1.0,0.0,0.0,1.0
964868624,710,2020-07-28/964868624s710ms.jpg,964868624s710ms.jpg,465,30758,32732,33288,0.017089844,-0.2421875,0.99560547,0.1675941186626,-2.375048046875,9.7635543823755,430421127.0,-1036541400,-47.80000000000001,1.041,268.43,32582,32820,32912,-2.987805,-10.97561,10.914634,32725,32439,31333,-1.04,-0.02,-0.2,1.0,0.0,0.0,1.0
964868624,710,2020-07-28/964868624s710ms.jpg,964868624s710ms.jpg,332,30086,33056,32578,-0.14111328,0.10449219,1.3237305,-1.383848547312,1.0247183350635,12.981361707824998,430421189.0,-1036541017,-47.399999999999984,1.001,293.25,32568,32704,32874,4.0853660000000005,-8.658536999999999,11.768292,32726,32442,31332,-0.91,0.39,-0.2,1.0,0.0,0.0,1.0
964868624,710,2020-07-28/964868624s710ms.jpg,964868624s710ms.jpg,262,30509,32466,32770,0.14697266,0.0107421875,1.1171875,1.441309436189,0.105344873046875,10.955866796875,430421160.0,-1036540838,-47.19999999999999,0.953,294.13,32511,32586,32837,11.280488,-6.402439,15.243902,32728,32448,31331,-0.86,0.38,-0.2,1.0,0.0,0.0,1.0
964868624,710,2020-07-28/964868624s710ms.jpg,964868624s710ms.jpg,352,30929,32785,33192,-0.0087890625,-0.1953125,0.9121094,-0.086191259765625,-1.915361328125,8.944737647510001,430421190.0,-1036541078,-47.399999999999984,1.007,290.77,32554,32782,32757,-0.6707316999999999,-1.5243902,12.621951,32731,32460,31328,-0.94,0.35,-0.2,1.0,0.0,0.0,1.0
964868569,722,2020-07-28/964868569s722ms.jpg,964868569s722ms.jpg,700,30184,31811,33027,0.46679688,-0.114746094,1.2758789,4.577713623252,-1.1252747827251002,12.512097814685,430449744.0,-1036557852,42.0,2.333,216.39,33430,32388,33266,23.353659,-32.560974,-40.792683,32755,32518,31218,-1.38,-1.87,-0.31,0.0,0.0,0.0,0.0
964868569,722,2020-07-28/964868569s722ms.jpg,964868569s722ms.jpg,690,29791,31886,33029,0.43017578,-0.115722656,1.4677733999999998,4.218583312937,-1.1348515844624,14.39394001311,430449786.0,-1036557813,42.200000000000045,2.342,216.32,33318,32427,33276,20.975609,-33.17073,-33.963413,32754,32508,31218,-1.38,-1.88,-0.31,0.0,0.0,0.0,0.0
964868569,722,2020-07-28/964868569s722ms.jpg,964868569s722ms.jpg,640,31663,31386,33647,0.6743164,-0.41748047,0.55371094,6.6127849240600005,-4.0940848511255,5.430049389751001,430449940.0,-1036557629,42.39999999999998,2.4530000000000003,213.13,33025,32438,33043,20.304878,-18.963415,-16.09756,32764,32527,31210,-1.34,-2.05,-0.3,0.0,0.0,0.0,0.0
964868569,722,2020-07-28/964868569s722ms.jpg,964868569s722ms.jpg,619,30493,32186,33448,0.2836914,-0.3203125,1.125,2.78206226781,-3.141192578125,11.03248125,430450007.0,-1036557546,42.39999999999998,2.4730000000000003,212.29,32841,32500,33100,16.524391,-22.439024,-4.878049,32757,32493,31216,-1.32,-2.09,-0.3,0.0,0.0,0.0,0.0
964868569,722,2020-07-28/964868569s722ms.jpg,964868569s722ms.jpg,589,31397,31874,33335,0.43603516,-0.26513672,0.68359375,4.276044201814,-2.600103015188,6.7037646484375,430450128.0,-1036557412,42.39999999999998,2.497,211.02,32762,32449,32940,19.634146,-12.682927,-0.06097561,32765,32513,31207,-1.28,-2.14,-0.31,0.0,0.0,0.0,0.0
964868569,722,2020-07-28/964868569s722ms.jpg,964868569s722ms.jpg,559,30315,32688,33777,0.03857422,-0.48095703,1.2119141000000002,0.378283874563,-4.7165772582495,11.884817408765,430450261.0,-1036557284,42.60000000000002,2.54,208.69,32601,32545,32931,13.780488,-12.134147,9.756098,32760,32488,31210,-1.21,-2.22,-0.31,0.0,0.0,0.0,0.0
964868569,722,2020-07-28/964868569s722ms.jpg,964868569s722ms.jpg,750,31181,32424,32440,0.16748047,0.171875,0.7890625,1.6424223511254998,1.68551796875,7.738059765625,430449499.0,-1036558079,41.79999999999996,2.511,213.9,33888,32566,33461,12.5,-44.451218,-68.71951,32756,32555,31206,-1.4,-2.08,-0.3,0.0,0.0,0.0,0.0
964868569,722,2020-07-28/964868569s722ms.jpg,964868569s722ms.jpg,983,25710,33476,31781,-0.3461914,0.49365234,3.4604492,-3.39497789281,4.841075720061,33.93541414718,430448132.0,-1036558988,41.0,3.352,200.56,32937,33007,32663,-14.390244,4.207317,-10.731708,32745,32597,31192,-1.17,-3.13,-0.31,0.0,0.0,0.0,0.0
964868569,722,2020-07-28/964868569s722ms.jpg,964868569s722ms.jpg,952,31617,33201,32162,-0.21191406,0.3076172,0.5761719,-2.078167016499,3.01669421438,5.650316163134999,430448288.0,-1036558878,41.200000000000045,3.284,201.69,33208,32748,32826,1.402439,-5.731707,-27.256098,32734,32544,31205,-1.21,-3.05,-0.3,0.0,0.0,0.0,0.0
964868569,722,2020-07-28/964868569s722ms.jpg,964868569s722ms.jpg,912,31317,34150,34097,-0.67529297,-0.63720703,0.72265625,-6.622361804250501,-6.2488663207494985,7.0868369140624985,430448519.0,-1036558741,41.200000000000045,3.092,204.47,33559,32494,33141,16.890244,-24.939024,-48.658535,32742,32575,31201,-1.28,-2.81,-0.31,0.0,0.0,0.0,0.0
964868569,722,2020-07-28/964868569s722ms.jpg,964868569s722ms.jpg,902,29834,33714,32537,-0.46240234,0.12451172,1.4467773000000002,-4.534617907561,1.221042858938,14.188038609044998,430448575.0,-1036558704,41.200000000000045,3.069,204.88,33500,32484,33236,17.5,-30.731707,-45.060974,32741,32566,31203,-1.29,-2.78,-0.31,0.0,0.0,0.0,0.0
964868569,722,2020-07-28/964868569s722ms.jpg,964868569s722ms.jpg,761,30192,32736,32412,0.015136719,0.18554688,1.2719726999999998,0.1484405053813499,1.819593310752,12.473791078455,430449435.0,-1036558123,41.79999999999996,2.543,212.91,33639,32713,33352,3.5365853,-37.80488,-53.536587,32751,32536,31211,-1.38,-2.13,-0.31,0.0,0.0,0.0,0.0
964868569,722,2020-07-28/964868569s722ms.jpg,964868569s722ms.jpg,841,29426,32987,31438,-0.107421875,0.6611328000000001,1.6459961,-1.05344873046875,6.48349797312,16.141707654065,430448890.0,-1036558493,41.60000000000002,2.975,207.76,33631,32603,33399,10.243902,-40.67073,-53.048782,32740,32539,31211,-1.38,-2.63,-0.31,0.0,0.0,0.0,0.0
964868569,722,2020-07-28/964868569s722ms.jpg,964868569s722ms.jpg,821,32054,32655,34752,0.0546875,-0.95703125,0.36279297,0.5363011718749999,-9.3852705078125,3.5577836792504995,430449007.0,-1036558402,41.60000000000002,2.92,208.63,33707,32559,33292,12.926829,-34.146343,-57.682926,32746,32549,31206,-1.39,-2.56,-0.31,0.0,0.0,0.0,0.0
964868569,722,2020-07-28/964868569s722ms.jpg,964868569s722ms.jpg,781,29781,32658,33325,0.0532226559999999,-0.2602539,1.4726562,0.5219359594624,-2.5522189084349995,14.44182392373,430449313.0,-1036558205,41.79999999999996,2.665,211.37,33354,32815,33105,-2.682927,-22.743902,-36.158535,32746,32527,31215,-1.38,-2.27,-0.31,0.0,0.0,0.0,0.0
964868569,722,2020-07-28/964868569s722ms.jpg,964868569s722ms.jpg,176,30926,33484,33099,-0.35009766,-0.14990234,0.9135742,-3.4332852174389994,-1.470039782561,8.959102428429999,430451668.0,-1036555921,43.79999999999996,2.629,236.59,32290,32722,32832,2.987805,-6.097561,28.719513,32769,32515,31175,-2.19,-1.44,-0.3,0.0,0.0,0.0,0.0
964868569,722,2020-07-28/964868569s722ms.jpg,964868569s722ms.jpg,237,30637,33561,33258,-0.3876953,-0.22753906,1.0546875,-3.801992113745,-2.231395922749,10.342951171875,430451509.0,-1036556180,43.600000000000016,2.6060000000000003,238.56,31970,32680,32669,5.5487804,3.8414633,48.23171,32768,32522,31180,-2.22,-1.35,-0.31,0.0,0.0,0.0,0.0
964868569,722,2020-07-28/964868569s722ms.jpg,964868569s722ms.jpg,498,30384,32788,33229,-0.010253906,-0.2133788999999999,1.1782226999999998,-0.1005564672748999,-2.092532189685,11.554417640955,430450464.0,-1036557042,42.79999999999996,2.595,203.64,32595,32661,32877,6.707317,-8.841463000000001,10.121951,32762,32497,31205,-1.04,-2.37,-0.31,0.0,0.0,0.0,0.0
964868569,722,2020-07-28/964868569s722ms.jpg,964868569s722ms.jpg,378,31149,32422,33300,0.16845703,-0.24804688,0.8046875,1.6519991332495,-2.432508935752,7.891288671874999,430451056.0,-1036556665,43.200000000000045,2.444,223.22,32257,32598,32855,10.54878,-7.5,30.731707,32760,32483,31202,-1.67,-1.78,-0.31,0.0,0.0,0.0,0.0
964868569,722,2020-07-28/964868569s722ms.jpg,964868569s722ms.jpg,288,30759,33495,33093,-0.35546875,-0.14697266,0.9951171999999998,-3.4859576171875,-1.441309436189,9.758766089380002,430451370.0,-1036556348,43.399999999999984,2.462,234.62,31805,32708,32610,3.8414633,7.439024400000001,58.292683,32764,32498,31189,-2.0,-1.42,-0.31,0.0,0.0,0.0,0.0
964868631,717,2020-07-28/964868631s717ms.jpg,964868631s717ms.jpg,682,30994,32859,33222,-0.044921875,-0.20996094,0.8803711,-0.44053310546875,-2.059013452251,8.633491247815,430418884.0,-1036538752,-52.399999999999984,0.321,75.83,32306,32966,32731,-11.890244,0.06097561,27.743902,32699,32470,31356,0.31,0.07,-0.06,2.0,0.0,1.0,1.0
964868631,717,2020-07-28/964868631s717ms.jpg,964868631s717ms.jpg,561,30640,33661,33039,-0.43652344,-0.12060547,1.0532226999999998,-4.280832592876,-1.1827356323755,10.328586390955,430418769.0,-1036539135,-53.80000000000001,0.0,106.68,32340,32984,32672,-12.987804,3.6585367,25.670732,32697,32502,31352,0.23,-0.08,-0.08,2.0,0.0,1.0,1.0
964868631,717,2020-07-28/964868631s717ms.jpg,964868631s717ms.jpg,965,31204,32348,33344,0.20458984,-0.26953125,0.77783203,2.006340954436,-2.6431986328125,7.6279264769995,430418140.0,-1036538809,-49.600000000000016,0.315,106.52,33216,32926,32919,-9.45122,-11.402439,-27.743902,32711,32501,31336,0.3,-0.08,-0.06,2.0,0.0,1.0,1.0
964868631,717,2020-07-28/964868631s717ms.jpg,964868631s717ms.jpg,863,31053,32483,33492,0.13867188,-0.34179688,0.8515625,1.359906592002,-3.351882373252,8.350975390624999,430418391.0,-1036538686,-50.600000000000016,0.3289999999999999,97.86,33219,33017,32911,-15.0,-10.914634,-27.926828000000004,32711,32500,31339,0.32,-0.04,-0.06,2.0,0.0,1.0,1.0
964868631,717,2020-07-28/964868631s717ms.jpg,964868631s717ms.jpg,853,30883,32607,33227,0.078125,-0.21240234,0.9345703000000002,0.7661445312499999,-2.082955407561,9.165003832495,430418424.0,-1036538680,-50.80000000000001,0.3329999999999999,96.44,33198,33027,32920,-15.609756,-11.463414,-26.646341,32711,32496,31339,0.33,-0.03,-0.06,2.0,0.0,1.0,1.0
964868631,717,2020-07-28/964868631s717ms.jpg,964868631s717ms.jpg,833,31027,32648,32592,0.05810547,0.09765625,0.8642578000000002,0.5698200073755,0.9576806640625,8.475473754369999,430418465.0,-1036538647,-51.0,0.341,96.22,33092,33017,32858,-15.0,-7.6829267,-20.182926,32713,32507,31341,0.33,-0.03,-0.06,2.0,0.0,1.0,1.0
964868631,717,2020-07-28/964868631s717ms.jpg,964868631s717ms.jpg,803,30834,32562,32934,0.100097656,-0.06933594,0.9584961,0.9816226782124,-0.679953296001,9.399635779065,430418560.0,-1036538625,-51.19999999999999,0.352,92.36,33045,33001,32922,-14.02439,-11.585366,-17.317073999999998,32711,32501,31345,0.35,-0.01,-0.06,2.0,0.0,1.0,1.0
964868631,717,2020-07-28/964868631s717ms.jpg,964868631s717ms.jpg,215,30517,32336,33310,0.21044922,-0.2529297,1.1132812,2.063801843313,-2.480393042505,10.917559079980002,430418369.0,-1036540045,-58.0,0.482,109.93,32333,32804,32791,-2.012195,-3.597561,26.09756,32694,32504,31353,0.45,-0.16,-0.16,2.0,0.0,1.0,1.0
964868631,717,2020-07-28/964868631s717ms.jpg,964868631s717ms.jpg,185,31131,33043,33104,-0.13476562,-0.15234375,0.81347656,-1.321599267373,-1.4939818359375,7.977479907124,430418326.0,-1036540153,-58.399999999999984,0.477,120.98,32324,32668,32749,6.280488,-1.0365853,26.646341,32689,32486,31360,0.4,-0.24,-0.17,2.0,0.0,1.0,1.0
964868631,717,2020-07-28/964868631s717ms.jpg,964868631s717ms.jpg,155,31306,33259,33347,-0.24023438,-0.2709960999999999,0.72802734,-2.355894482627,-2.6575639040650003,7.139509313811001,430418357.0,-1036540220,-58.80000000000001,0.5,126.74,32280,32610,32761,9.817073,-1.7682927,29.329268,32702,32521,31344,0.4,-0.29,-0.18,2.0,0.0,1.0,1.0
964868631,717,2020-07-28/964868631s717ms.jpg,964868631s717ms.jpg,30,30758,31888,34205,0.42919922,-0.6899414,0.99560547,4.209006530812999,-6.76601383031,9.7635543823755,430418427.0,-1036540401,-60.19999999999999,0.762,146.1,32451,32927,32574,-9.512196,9.634147,18.90244,32694,32504,31350,0.42,-0.63,-0.3,2.0,0.0,1.0,1.0
964868631,717,2020-07-28/964868631s717ms.jpg,964868631s717ms.jpg,235,30563,32204,32770,0.27490234,0.0107421875,1.0908203,2.695871032561,0.105344873046875,10.697292894995,430418410.0,-1036539972,-57.80000000000001,0.492,104.76,32285,32726,32796,2.7439024,-3.902439,29.024391,32690,32485,31360,0.47,-0.12,-0.15,2.0,0.0,1.0,1.0
964868631,717,2020-07-28/964868631s717ms.jpg,964868631s717ms.jpg,452,30978,33555,33022,-0.38476562,-0.11230469,0.8881836,-3.773261767373,-1.1013327881885,8.71010570094,430418676.0,-1036539428,-55.0,0.0,106.68,32649,33017,32862,-15.0,-7.9268293,6.8292685,32683,32488,31359,0.25,-0.09,-0.11,2.0,0.0,1.0,1.0
964868631,717,2020-07-28/964868631s717ms.jpg,964868631s717ms.jpg,422,31659,33339,33843,-0.27929688,-0.5131836,0.55566406,-2.7389667482520004,-5.032611950939999,5.449202953999,430418598.0,-1036539542,-55.399999999999984,0.0,106.68,32832,32945,32998,-10.609756,-16.219513,-4.3292685,32689,32515,31355,0.26,-0.09,-0.12,2.0,0.0,1.0,1.0
964868631,717,2020-07-28/964868631s717ms.jpg,964868631s717ms.jpg,382,31392,32530,32875,0.115722656,-0.040527344,0.68603516,1.1348515844624,-0.3974374780376,6.727706701813999,430418519.0,-1036539670,-56.0,0.0,106.68,33005,32918,33058,-8.963414,-19.878048,-14.878049,32682,32493,31364,0.31,-0.11,-0.13,2.0,0.0,1.0,1.0
964868631,717,2020-07-28/964868631s717ms.jpg,964868631s717ms.jpg,480,30198,33500,33397,-0.35791016,-0.29541016,1.269043,-3.509899670564,-2.8969840455639995,12.44506053595,430418696.0,-1036539368,-54.80000000000001,0.0,106.68,32567,33084,32848,-19.085365,-7.0731707,11.829268,32687,32500,31358,0.25,-0.09,-0.1,2.0,0.0,1.0,1.0
964868631,717,2020-07-28/964868631s717ms.jpg,964868631s717ms.jpg,339,31459,32526,33477,0.11767578,-0.33447266,0.6533203000000001,1.154005187937,-3.2800563111889995,6.4068835199950005,430418488.0,-1036539749,-56.399999999999984,0.416,103.97,32946,32738,33037,2.012195,-18.59756,-11.280488,32690,32514,31357,0.4,-0.1,-0.13,2.0,0.0,1.0,1.0
964868631,717,2020-07-28/964868631s717ms.jpg,964868631s717ms.jpg,319,32689,32559,33624,0.1015625,-0.40625,0.052734375,0.995987890625,-3.9839515625,0.51714755859375,430418464.0,-1036539792,-56.80000000000001,0.4639999999999999,104.48,32747,32635,33006,8.292683,-16.707317,0.85365856,32686,32492,31362,0.44,-0.11,-0.13,2.0,0.0,1.0,1.0
964868631,717,2020-07-28/964868631s717ms.jpg,964868631s717ms.jpg,277,30282,32695,33530,0.03515625,-0.36035156,1.2280273000000002,0.3447650390625,-3.533841625874,12.042833921544998,430418464.0,-1036539840,-57.19999999999999,0.514,99.3,32334,32647,32868,7.560975599999999,-8.292683,26.036585,32689,32494,31362,0.5,-0.08,-0.15,2.0,0.0,1.0,1.0
964868631,717,2020-07-28/964868631s717ms.jpg,964868631s717ms.jpg,359,31012,32371,33259,0.19335938,-0.22802734,0.87158203,1.896207763877,-2.236184313811,8.547299914499499,430418498.0,-1036539718,-56.19999999999999,0.0,106.68,32993,32892,33076,-7.378049000000001,-20.975609,-14.146341,32684,32496,31361,0.35,-0.11,-0.13,2.0,0.0,1.0,1.0
964868647,700,2020-07-28/964868647s700ms.jpg,964868647s700ms.jpg,715,31416,32749,33497,0.0087890625,-0.34423828,0.6743164,0.086191259765625,-3.375824328562,6.6127849240600005,430453745.0,-1036521173,-75.80000000000003,2.9760000000000004,351.72,32688,32670,32515,6.1585364,13.231708,4.4512196,32714,32523,31312,-0.42,2.94,-0.36,2.0,0.0,1.0,1.0
964868647,700,2020-07-28/964868647s700ms.jpg,964868647s700ms.jpg,705,31542,32902,33591,-0.06591797,-0.39013672,0.61279297,-0.6464344605005,-3.825934265188,6.009446179250499,430453741.0,-1036521159,-75.80000000000003,2.997,351.05,32693,32700,32519,4.3292685,12.987804,4.1463413000000005,32718,32532,31308,-0.46,2.96,-0.36,2.0,0.0,1.0,1.0
964868647,700,2020-07-28/964868647s700ms.jpg,964868647s700ms.jpg,605,30289,33433,32963,-0.3251953,-0.083496094,1.2246093999999998,-3.189076488745,-0.8188169702250999,12.009315772510002,430453674.0,-1036520957,-75.19999999999997,3.115,348.71,33111,32819,32750,-2.9268293,-1.097561,-21.341463,32716,32533,31309,-0.61,3.05,-0.35,2.0,0.0,1.0,1.0
964868647,700,2020-07-28/964868647s700ms.jpg,964868647s700ms.jpg,535,31301,33007,33438,-0.1171875,-0.3154297,0.73046875,-1.149216796875,-3.093308667505,7.163451367187498,430453536.0,-1036520817,-75.0,3.139,346.57,33095,32724,32780,2.8658535,-2.9268293,-20.365854,32715,32521,31314,-0.72,3.05,-0.34,2.0,0.0,1.0,1.0
964868647,700,2020-07-28/964868647s700ms.jpg,964868647s700ms.jpg,525,31726,32819,33806,-0.025390625,-0.4951172,0.5229492,-0.24899697265625,-4.855441089379999,5.128379772180001,430453518.0,-1036520793,-74.80000000000003,3.144,346.46,33069,32737,32796,2.0731707,-3.902439,-18.780487,32714,32516,31317,-0.73,3.05,-0.34,2.0,0.0,1.0,1.0
964868647,700,2020-07-28/964868647s700ms.jpg,964868647s700ms.jpg,735,29787,32730,32772,0.018066406,0.009765625,1.4697266000000002,0.1771709203998999,0.09576806640625,14.413094361889998,430453758.0,-1036521203,-76.0,2.932,352.83,32628,32696,32559,4.5731707,10.54878,8.109755999999999,32712,32516,31311,-0.36,2.9,-0.36,2.0,0.0,1.0,1.0
964868647,700,2020-07-28/964868647s700ms.jpg,964868647s700ms.jpg,625,31883,33204,33608,-0.2133788999999999,-0.3984375,0.44628906,-2.092532189685,-3.907337109375,4.3766006102490005,430453701.0,-1036520991,-75.39999999999998,3.104,349.46,33055,32713,32623,3.5365853,6.6463413000000005,-17.926828,32724,32564,31301,-0.56,3.05,-0.35,2.0,0.0,1.0,1.0
964868647,700,2020-07-28/964868647s700ms.jpg,964868647s700ms.jpg,918,30398,32981,33104,-0.10449219,-0.15234375,1.1713867,-1.0247183350635,-1.4939818359375,11.487379381555,430453558.0,-1036521781,-77.0,2.2,342.18,32084,32444,32629,19.939024,6.280488,41.280487,32713,32505,31332,-0.67,2.09,-0.39,2.0,0.0,1.0,1.0
964868647,700,2020-07-28/964868647s700ms.jpg,964868647s700ms.jpg,787,31584,32566,33611,0.09814453,-0.39990234,0.59228516,0.9624690551245,-3.921702282561,5.808333264313999,430453748.0,-1036521336,-76.19999999999997,2.729,350.98,32459,32571,32576,12.195122,9.512196,18.414635,32714,32522,31317,-0.42,2.69,-0.37,2.0,0.0,1.0,1.0
964868647,700,2020-07-28/964868647s700ms.jpg,964868647s700ms.jpg,159,30787,33418,32723,-0.3178710999999999,0.033691406,0.9814453000000002,-3.117250622815,0.3303998266499,9.624690551245,430452465.0,-1036519936,-73.0,3.036,348.38,32202,32853,32407,-5.0,19.817074,34.085365,32717,32581,31294,-0.61,2.97,-0.3,2.0,0.0,1.0,1.0
964868647,700,2020-07-28/964868647s700ms.jpg,964868647s700ms.jpg,138,31245,33127,32580,-0.17578125,0.103515625,0.7578125,-1.7238251953125,1.01514150390625,7.431601953125,430452460.0,-1036519879,-73.0,3.0780000000000003,348.88,32224,32822,32349,-3.109756,23.353659,32.743904,32709,32563,31297,-0.59,3.01,-0.29,2.0,0.0,1.0,1.0
964868647,700,2020-07-28/964868647s700ms.jpg,964868647s700ms.jpg,118,31069,32910,33477,-0.06982422,-0.33447266,0.84375,-0.6847416870630001,-3.2800563111889995,8.2743609375,430452427.0,-1036519834,-73.0,3.103,348.86,32192,32794,32368,-1.402439,22.195122,34.69512,32704,32555,31301,-0.59,3.04,-0.29,2.0,0.0,1.0,1.0
964868647,700,2020-07-28/964868647s700ms.jpg,964868647s700ms.jpg,68,31130,33379,32896,-0.29882812,-0.05078125,0.81396484,-2.9305027829979995,-0.4979939453125,7.982268298186001,430452309.0,-1036519739,-72.80000000000003,3.201,348.5,32411,32824,32460,-3.2317073,16.585365,21.341463,32701,32564,31294,-0.63,3.13,-0.28,2.0,0.0,1.0,1.0
964868647,700,2020-07-28/964868647s700ms.jpg,964868647s700ms.jpg,38,31633,32855,34757,-0.04296875,-0.95947266,0.5683594,-0.4213794921875,-9.409212561189,5.573701710009999,430452352.0,-1036519643,-72.60000000000002,3.374,347.55,32661,32911,32261,-8.536586,28.719513,6.097561,32698,32566,31293,-0.72,3.29,-0.28,2.0,0.0,1.0,1.0
964868647,700,2020-07-28/964868647s700ms.jpg,964868647s700ms.jpg,28,31322,32566,34223,0.09814453,-0.69873047,0.72021484,0.9624690551245,-6.8522051636255,7.062894860686001,430452344.0,-1036519616,-72.60000000000002,3.399,347.37,32706,32868,32393,-5.914634,20.670732,3.3536584,32695,32563,31295,-0.74,3.31,-0.28,2.0,0.0,1.0,1.0
964868647,700,2020-07-28/964868647s700ms.jpg,964868647s700ms.jpg,444,30204,32671,32906,0.046875,-0.055664062,1.2661133,0.45968671875,-0.5458779736123001,12.416329993444998,430453325.0,-1036520592,-74.39999999999998,3.16,344.62,32760,32895,32749,-7.560975599999999,-1.0365853,0.06097561,32717,32518,31319,-0.83,3.04,-0.33,2.0,0.0,1.0,1.0
964868647,700,2020-07-28/964868647s700ms.jpg,964868647s700ms.jpg,414,31467,32927,33101,-0.078125,-0.1508789,0.64941406,-0.7661445312499999,-1.479616564685,6.368576391499,430453173.0,-1036520550,-74.19999999999997,3.132,343.41,32470,32836,32711,-3.9634147,1.2804878,17.743902,32722,32546,31313,-0.89,3.0,-0.33,2.0,0.0,1.0,1.0
964868647,700,2020-07-28/964868647s700ms.jpg,964868647s700ms.jpg,312,31781,32944,33888,-0.08642578,-0.53515625,0.49609375,-0.8475473754369999,-5.2480900390624985,4.8650177734375,430452553.0,-1036520386,-73.60000000000002,2.657,340.62,31956,32892,32723,-7.378049000000001,0.5487805,49.085365,32726,32575,31306,-0.88,2.5,-0.31,2.0,0.0,1.0,1.0
964868647,700,2020-07-28/964868647s700ms.jpg,964868647s700ms.jpg,272,31634,33219,33303,-0.22070312,-0.24951172,0.5678711,-2.164358251748,-2.446874108938,5.568913122814998,430452485.0,-1036520288,-73.39999999999998,2.676,341.67,31855,32778,32568,-0.42682928,10.0,55.243904,32712,32526,31314,-0.84,2.54,-0.31,2.0,0.0,1.0,1.0
964868677,730,2020-07-28/964868677s730ms.jpg,964868677s730ms.jpg,657,31533,33834,33688,-0.5209961,-0.4375,0.6171875,-5.109226404065,-4.290409374999999,6.052541796875,430500199.0,-1036462600,-113.39999999999998,1.543,60.82,33584,32788,32923,-1.0365853,-11.646341,-50.182926,32675,32649,31247,1.34,0.75,-0.23,3.0,1.0,2.0,3.0
964868677,730,2020-07-28/964868677s730ms.jpg,964868677s730ms.jpg,637,30178,33343,31982,-0.28125,0.3955078,1.2788086,-2.7581203125,3.87860656687,12.540828357189998,430500148.0,-1036462645,-113.39999999999998,1.546,62.88,33576,32635,33143,8.292683,-25.060976,-49.69512,32670,32628,31257,1.37,0.7,-0.23,3.0,1.0,2.0,3.0
964868677,730,2020-07-28/964868677s730ms.jpg,964868677s730ms.jpg,617,32646,33042,32630,-0.13427734,0.07910156,0.07373047,-1.3168108763109998,0.7757213133740001,0.7230489136255001,430500087.0,-1036462663,-113.39999999999998,1.555,66.38,33373,32719,32723,3.1707318,0.5487805,-37.317074,32671,32624,31262,1.42,0.62,-0.23,3.0,1.0,2.0,3.0
964868677,730,2020-07-28/964868677s730ms.jpg,964868677s730ms.jpg,564,32982,32612,33494,0.075683594,-0.34277344,-0.09033203,0.7422025171000999,-3.361459155376,-0.8858546019994998,430500119.0,-1036462682,-114.39999999999998,1.53,70.57,32889,32778,32795,-0.42682928,-3.8414633,-7.804877999999999,32678,32634,31262,1.44,0.5,-0.23,3.0,1.0,2.0,3.0
964868677,730,2020-07-28/964868677s730ms.jpg,964868677s730ms.jpg,534,35307,31498,33319,0.6196289,-0.25732422,-1.2255858999999998,6.076483752185,-2.523488562063,-12.018891966235,430500168.0,-1036462710,-115.0,1.496,71.38,32766,32264,32497,30.914635,14.329268,-0.30487806,32676,32626,31264,1.41,0.47,-0.23,3.0,1.0,2.0,3.0
964868677,730,2020-07-28/964868677s730ms.jpg,964868677s730ms.jpg,909,29544,34031,34986,-0.6171875,-1.0712891000000002,1.5883789,-6.052541796875,-10.505757252515,15.576675939685,430500769.0,-1036461954,-113.60000000000002,2.0340000000000003,65.34,32985,32236,32899,32.621952,-10.182927,-13.658537,32664,32670,31237,1.84,0.84,-0.24,3.0,1.0,2.0,3.0
964868677,730,2020-07-28/964868677s730ms.jpg,964868677s730ms.jpg,807,32306,31857,31116,0.44433594,0.8183594,0.2397461,4.357447046001,8.025364210009997,2.351106091565,430500555.0,-1036462203,-113.60000000000002,1.97,65.81,32821,32248,32509,31.890244,13.597561,-3.6585367,32665,32640,31240,1.79,0.8,-0.24,3.0,1.0,2.0,3.0
964868677,730,2020-07-28/964868677s730ms.jpg,964868677s730ms.jpg,787,29600,33202,31956,-0.21240234,0.40820312,1.5610351999999998,-2.082955407561,4.003105126747999,15.30852584408,430500506.0,-1036462244,-113.60000000000002,1.936,64.99,33044,33202,32988,-26.280487,-15.609756,-17.256098,32665,32634,31236,1.75,0.81,-0.23,3.0,1.0,2.0,3.0
964868677,730,2020-07-28/964868677s730ms.jpg,964868677s730ms.jpg,483,28981,33329,34636,-0.27441406,-0.9003905999999999,1.8632812,-2.6910826414990003,-8.82981547749,18.27254657998,430500249.0,-1036462756,-116.0,1.531,71.99,33121,32244,32653,32.134148,4.8170733,-21.951220000000003,32673,32620,31266,1.45,0.47,-0.23,3.0,1.0,2.0,3.0
964868677,730,2020-07-28/964868677s730ms.jpg,964868677s730ms.jpg,159,24148,32559,32457,0.1015625,0.16357422,4.2231445,0.995987890625,1.604115124563,41.414900010925,430500673.0,-1036463190,-124.0,1.31,67.76,33254,33381,33501,-37.19512,-46.890244,-30.060976,32706,32573,31276,1.21,0.49,-0.22,3.0,1.0,2.0,3.0
964868677,730,2020-07-28/964868677s730ms.jpg,964868677s730ms.jpg,89,31346,32601,31930,0.08105469,0.42089844,0.7084961,0.7948749756885,4.127603686625998,6.947973279064999,430500750.0,-1036463290,-125.8,1.115,67.76,33691,32409,33324,22.073172,-36.09756,-56.707317,32718,32592,31280,1.03,0.42,-0.22,3.0,1.0,2.0,3.0
964868677,730,2020-07-28/964868677s730ms.jpg,964868677s730ms.jpg,29,31204,32905,31089,-0.06738281,0.83154297,0.77783203,-0.6607996336865,8.154650866750499,7.6279264769995,430500787.0,-1036463355,-127.2,1.057,67.76,33659,32780,33510,-0.5487805,-47.439026,-54.756096,32725,32570,31281,0.97,0.39,-0.23,3.0,1.0,2.0,3.0
964868677,730,2020-07-28/964868677s730ms.jpg,964868677s730ms.jpg,8,30010,33120,32575,-0.17236328,0.10595703,1.3608398000000002,-1.690306359812,1.0390835082494998,13.34527962467,430500789.0,-1036463373,-127.60000000000002,1.031,67.76,33753,33151,33527,-23.170732,-48.47561,-60.487804,32726,32563,31285,0.95,0.39,-0.23,3.0,1.0,2.0,3.0
964868677,730,2020-07-28/964868677s730ms.jpg,964868677s730ms.jpg,493,27360,33783,34770,-0.49609375,-0.9658203000000002,2.6547852,-4.8650177734375,-9.471461644995,26.03454928158,430500230.0,-1036462749,-115.8,1.518,71.99,33062,32212,32666,34.085365,4.02439,-18.353659,32672,32618,31266,1.44,0.46,-0.23,3.0,1.0,2.0,3.0
964868677,730,2020-07-28/964868677s730ms.jpg,964868677s730ms.jpg,129,36170,33276,33525,-0.24853516,-0.35791016,-1.6469726999999998,-2.437297326814,-3.509899670564,-16.151284828455,430500717.0,-1036463233,-124.8,1.285,67.76,33467,32685,32942,5.243901999999999,-12.804878,-43.048782,32706,32564,31283,1.18,0.48,-0.22,3.0,1.0,2.0,3.0
964868677,730,2020-07-28/964868677s730ms.jpg,964868677s730ms.jpg,239,33042,31711,33284,0.515625,-0.24023438,-0.119628906,5.05655390625,-2.355894482627,-1.1731588110248998,430500632.0,-1036463068,-122.0,1.509,83.15,32984,32483,33047,17.560976,-19.207317,-13.597561,32700,32595,31277,1.49,0.17,-0.22,3.0,1.0,2.0,3.0
964868677,730,2020-07-28/964868677s730ms.jpg,964868677s730ms.jpg,433,29764,33577,32533,-0.3955078,0.12646484,1.480957,-3.87860656687,1.240196423186,14.52322696405,430500353.0,-1036462790,-117.2,1.539,75.97,33461,32543,32948,13.902439,-13.170732,-42.682926,32675,32619,31262,1.49,0.37,-0.23,3.0,1.0,2.0,3.0
964868677,730,2020-07-28/964868677s730ms.jpg,964868677s730ms.jpg,279,28400,32350,33709,0.20361328,-0.4477539000000001,2.1469727,1.996764172312,-4.390965783435,21.054609828455,430500592.0,-1036462991,-120.8,1.524,83.53,33259,32618,33379,9.329268,-39.451218,-30.365854,32692,32592,31277,1.51,0.17,-0.22,3.0,1.0,2.0,3.0
964868677,730,2020-07-28/964868677s730ms.jpg,964868677s730ms.jpg,289,29645,32318,34186,0.21923828,-0.68066406,1.5390625,2.1499930785620003,-6.675034203998999,15.093047265625,430500584.0,-1036462967,-120.60000000000002,1.538,83.48,33372,32839,33300,-4.1463413000000005,-34.634148,-37.256096,32689,32589,31277,1.52,0.17,-0.22,3.0,1.0,2.0,3.0
964868677,730,2020-07-28/964868677s730ms.jpg,964868677s730ms.jpg,341,29734,32553,31671,0.10449219,0.5473633000000001,1.4956055,1.0247183350635,5.367800305945,14.666879676574998,430500538.0,-1036462887,-119.39999999999998,1.585,80.35,33712,32816,33357,-2.7439024,-38.109756,-57.987804,32694,32644,31257,1.56,0.26,-0.22,3.0,1.0,2.0,3.0
964868661,714,2020-07-28/964868661s714ms.jpg,964868661s714ms.jpg,671,28746,33109,32010,-0.16699219,0.38183594,1.9780273,-1.6376339600635,3.744531421001,19.397821421545,430485636.0,-1036503252,-133.39999999999998,5.675,43.32,32312,32832,32721,-3.719512200000001,0.6707316999999999,27.378048,32755,32500,31289,3.89,4.12,-0.3,2.0,0.0,1.0,1.0
964868661,714,2020-07-28/964868661s714ms.jpg,964868661s714ms.jpg,721,30684,33714,30937,-0.46240234,0.9057617,1.0317383,-4.534617907561,8.882487975304999,10.117896399695,430485733.0,-1036503042,-133.60000000000002,5.419,42.56,32309,32827,32663,-3.4146342000000005,4.207317,27.560976,32746,32464,31296,3.66,3.99,-0.3,2.0,0.0,1.0,1.0
964868661,714,2020-07-28/964868661s714ms.jpg,964868661s714ms.jpg,567,30360,32558,33158,0.10205078,-0.17871094,1.1899414,1.0007762816869998,-1.752555639751,11.669338830309998,430485437.0,-1036503764,-133.2,6.119,40.67,32231,32650,32659,7.378049000000001,4.4512196,32.317074,32745,32471,31294,3.98,4.64,-0.3,2.0,0.0,1.0,1.0
964868661,714,2020-07-28/964868661s714ms.jpg,964868661s714ms.jpg,557,30827,32438,33450,0.16064453,-0.32128906,0.96191406,1.5753846801245002,-3.1507693602490003,9.433154516499,430485404.0,-1036503826,-133.0,6.1370000000000005,40.43,32190,32695,32691,4.634146,2.5,34.817074,32747,32476,31290,3.97,4.67,-0.3,2.0,0.0,1.0,1.0
964868661,714,2020-07-28/964868661s714ms.jpg,964868661s714ms.jpg,962,24451,32616,30406,0.07373047,1.1650391000000002,4.0751953,0.7230489136255001,11.425130690015,39.964013988745,430485858.0,-1036502321,-134.2,4.325,39.03,32254,33283,32851,-31.219513,-7.256098,30.914635,32747,32455,31300,2.72,3.35,-0.3,2.0,0.0,1.0,1.0
964868661,714,2020-07-28/964868661s714ms.jpg,964868661s714ms.jpg,952,26425,33483,28960,-0.34960938,1.8710938,3.1113281,-3.428496826377,18.34916201377,30.511705711865,430485849.0,-1036502354,-134.2,4.359,39.37,32333,33183,32859,-25.121952,-7.743902,26.09756,32749,32461,31298,2.76,3.36,-0.3,2.0,0.0,1.0,1.0
964868661,714,2020-07-28/964868661s714ms.jpg,964868661s714ms.jpg,851,30102,32836,33063,-0.033691406,-0.13232422,1.315918,-0.3303998266499,-1.297657312063,12.904747254699998,430485840.0,-1036502699,-133.8,4.732,38.61,32305,32724,32710,2.8658535,1.3414634,27.804878,32746,32451,31301,2.95,3.69,-0.3,2.0,0.0,1.0,1.0
964868661,714,2020-07-28/964868661s714ms.jpg,964868661s714ms.jpg,507,31159,32771,33629,-0.001953125,-0.4086914,0.7998046999999999,-0.01915361328125,-4.00789351781,7.843404761255,430485228.0,-1036504148,-133.0,6.151,38.29,31881,32715,32599,3.4146342000000005,8.109755999999999,53.658535,32746,32475,31287,3.81,4.82,-0.31,2.0,0.0,1.0,1.0
964868661,714,2020-07-28/964868661s714ms.jpg,964868661s714ms.jpg,194,30359,32704,33062,0.030761719,-0.13183594,1.1904297,0.30166941163135,-1.292868921001,11.674127417504998,430483856.0,-1036505974,-132.2,5.809,29.73,32390,32836,32582,-3.9634147,9.146341,22.621952,32737,32530,31273,2.88,5.04,-0.31,2.0,0.0,1.0,1.0
964868661,714,2020-07-28/964868661s714ms.jpg,964868661s714ms.jpg,184,30104,33005,32861,-0.11621094,-0.033691406,1.3149414,-1.139640014751,-0.3303998266499,12.89517008031,430483800.0,-1036506022,-132.2,5.816,29.49,32430,32702,32575,4.207317,9.573171,20.182926,32742,32545,31268,2.86,5.06,-0.31,2.0,0.0,1.0,1.0
964868661,714,2020-07-28/964868661s714ms.jpg,964868661s714ms.jpg,114,30788,32722,33578,0.021972656,-0.38378906,0.98095703,0.2154781469624,-3.763684985249,9.6199022582495,430483580.0,-1036506313,-132.0,5.943,25.08,32426,32586,32519,11.280488,12.987804,20.426828,32733,32525,31269,2.51,5.38,-0.31,2.0,0.0,1.0,1.0
964868661,714,2020-07-28/964868661s714ms.jpg,964868661s714ms.jpg,31,29808,32960,33639,-0.09423828,-0.41357422,1.4594726999999998,-0.924161828562,-4.055777624563,14.312537953455,430483249.0,-1036506602,-131.8,5.972,23.28,32409,32674,32521,5.914634,12.865853,21.463415,32733,32544,31261,2.36,5.48,-0.31,2.0,0.0,1.0,1.0
964868661,714,2020-07-28/964868661s714ms.jpg,964868661s714ms.jpg,134,30662,33117,33005,-0.17089844,-0.104003906,1.0424805,-1.675941186626,-1.0199299047749,10.223241395325,430483587.0,-1036506249,-132.0,5.898,27.82,32344,32601,32407,10.365853,19.817074,25.426828,32736,32536,31271,2.75,5.21,-0.31,2.0,0.0,1.0,1.0
964868661,714,2020-07-28/964868661s714ms.jpg,964868661s714ms.jpg,254,30805,33084,32962,-0.15478516,-0.08300781,0.97265625,-1.517923889314,-0.8140285399364999,9.5384994140625,430484103.0,-1036505620,-132.39999999999998,5.86,32.71,32331,32834,32532,-3.8414633,12.195122,26.219513,32749,32554,31264,3.16,4.93,-0.3,2.0,0.0,1.0,1.0
964868661,714,2020-07-28/964868661s714ms.jpg,964868661s714ms.jpg,477,30899,32721,33503,0.022460938,-0.34716797,0.9267578000000002,0.2202665576377,-3.4045547730005,9.08838937937,430485121.0,-1036504348,-132.8,6.119,36.52,31837,32829,32428,-3.5365853,18.536585,56.341465,32744,32478,31287,3.64,4.91,-0.31,2.0,0.0,1.0,1.0
964868661,714,2020-07-28/964868661s714ms.jpg,964868661s714ms.jpg,244,30504,33207,32834,-0.21484375,-0.020507812,1.1196289,-2.1068974609375,-0.2011129345497999,10.979808752185,430484044.0,-1036505700,-132.2,5.848,32.3,32306,32804,32495,-2.012195,14.45122,27.743902,32749,32560,31263,3.12,4.94,-0.3,2.0,0.0,1.0,1.0
964868661,714,2020-07-28/964868661s714ms.jpg,964868661s714ms.jpg,447,29173,32691,32883,0.037109375,-0.044433594,1.7695312,0.36391865234375,-0.4357447046001,17.35317314248,430484982.0,-1036504549,-132.8,6.0760000000000005,35.32,31890,33025,32616,-15.487804,7.0731707,53.109756,32749,32497,31279,3.51,4.95,-0.31,2.0,0.0,1.0,1.0
964868661,714,2020-07-28/964868661s714ms.jpg,964868661s714ms.jpg,407,32924,32656,34135,0.05419922,-0.6557616999999999,-0.06201172,0.5315127808129999,-6.430825475304999,-0.608127233938,430484828.0,-1036504786,-132.60000000000002,5.935,33.92,31873,32843,32391,-4.390244,20.792683,54.146343,32743,32499,31282,3.31,4.92,-0.31,2.0,0.0,1.0,1.0
964868661,714,2020-07-28/964868661s714ms.jpg,964868661s714ms.jpg,354,30176,33289,32724,-0.2548828,0.033203125,1.2797851999999998,-2.4995464106200003,0.32561142578125,12.55040553158,430484614.0,-1036505036,-132.60000000000002,5.99,33.72,32043,32914,32441,-8.719512,17.743902,43.780487,32742,32505,31279,3.32,4.98,-0.31,2.0,0.0,1.0,1.0
964868661,714,2020-07-28/964868661s714ms.jpg,964868661s714ms.jpg,314,30657,33187,32984,-0.20507812,-0.09375,1.0449219,-2.011129345498,-0.9193734375,10.247183350635,430484440.0,-1036505235,-132.39999999999998,5.962999999999999,33.58,32146,32943,32480,-10.487804,15.365853,37.5,32747,32533,31272,3.29,4.96,-0.31,2.0,0.0,1.0,1.0
964868679,698,2020-07-28/964868679s698ms.jpg,964868679s698ms.jpg,676,27970,33358,33479,-0.28857422,-0.33544922,2.3569336,-2.829946374563,-3.289633093313,23.11362288844,430498152.0,-1036460317,-85.80000000000003,0.69,56.27,31469,32659,32528,6.8292685,12.439024,78.78049,32766,32441,31272,0.57,0.38,-0.22,2.0,0.0,1.0,1.0
964868679,698,2020-07-28/964868679s698ms.jpg,964868679s698ms.jpg,606,29542,32152,31028,0.30029297,0.8613280999999999,1.5893555,2.9448680542505,8.446743211865,15.586253114074998,430498413.0,-1036460236,-87.19999999999997,0.948,56.27,31629,32850,32353,-4.8170733,23.109756,69.02439,32765,32458,31267,0.78,0.52,-0.22,2.0,0.0,1.0,1.0
964868679,698,2020-07-28/964868679s698ms.jpg,964868679s698ms.jpg,576,31479,34110,33731,-0.6557616999999999,-0.4584960999999999,0.6435546999999999,-6.430825475304999,-4.496310779064999,6.311115698755,430498487.0,-1036460194,-88.0,0.985,56.27,31599,33498,32026,-44.32927,43.048782,70.85365999999999,32763,32461,31266,0.81,0.54,-0.23,2.0,0.0,1.0,1.0
964868679,698,2020-07-28/964868679s698ms.jpg,964868679s698ms.jpg,626,26757,33161,33469,-0.19238281,-0.3305664,2.9492188,-1.8866308836865,-3.24174898656,28.92195654502,430498343.0,-1036460255,-86.80000000000003,0.902,56.27,31534,32859,32391,-5.365854,20.792683,74.81707,32767,32458,31264,0.75,0.5,-0.22,2.0,0.0,1.0,1.0
964868679,698,2020-07-28/964868679s698ms.jpg,964868679s698ms.jpg,916,31654,33010,32360,-0.118652344,0.2109375,0.55810547,-1.1635820092876,2.068590234375,5.4731450073755,430497424.0,-1036460285,-80.60000000000002,1.077,56.27,32136,32728,32997,2.621951,-16.158537,38.109756,32762,32423,31286,0.89,0.59,-0.14,2.0,0.0,1.0,1.0
964868679,698,2020-07-28/964868679s698ms.jpg,964868679s698ms.jpg,866,34296,32072,34152,0.33935547,-0.6640625,-0.7319336,3.3279403198755,-6.512228515625,-7.17781663844,430497519.0,-1036460305,-81.39999999999998,1.047,56.27,31943,32218,32718,33.719513,0.85365856,49.878048,32756,32389,31293,0.87,0.58,-0.14,2.0,0.0,1.0,1.0
964868679,698,2020-07-28/964868679s698ms.jpg,964868679s698ms.jpg,846,32588,31576,34394,0.58154297,-0.78222656,0.10205078,5.702988366750501,-7.671022094624,1.0007762816869998,430497594.0,-1036460304,-81.80000000000003,1.032,56.27,32114,32416,32868,21.646341,-8.292683,39.451218,32764,32418,31283,0.85,0.57,-0.15,2.0,0.0,1.0,1.0
964868679,698,2020-07-28/964868679s698ms.jpg,964868679s698ms.jpg,826,31250,32367,29967,0.1953125,1.3793945,0.7553711,1.915361328125,13.527239073425,7.407659997814998,430497667.0,-1036460307,-82.19999999999997,1.019,56.27,32099,31912,33100,52.378048,-22.439024,40.365852,32761,32405,31286,0.84,0.56,-0.16,2.0,0.0,1.0,1.0
964868679,698,2020-07-28/964868679s698ms.jpg,964868679s698ms.jpg,816,30618,31342,31399,0.6958008000000001,0.6801758000000001,1.0639648000000002,6.823474915319999,6.67024600907,10.433930405919998,430497704.0,-1036460306,-82.39999999999998,1.013,56.27,31875,31706,32776,64.939026,-2.682927,54.02439,32759,32401,31289,0.84,0.56,-0.16,2.0,0.0,1.0,1.0
964868679,698,2020-07-28/964868679s698ms.jpg,964868679s698ms.jpg,95,35257,32789,32951,-0.0107421875,-0.07763672,-1.2011718999999998,-0.105344873046875,-0.761356140188,-11.779472413135,430500398.0,-1036460319,-102.39999999999998,1.212,56.27,32196,32432,32030,20.670732,42.80488,34.451218,32758,32488,31258,1.0,0.67,-0.24,2.0,0.0,1.0,1.0
964868679,698,2020-07-28/964868679s698ms.jpg,964868679s698ms.jpg,25,31284,32663,28756,0.05078125,1.9707031000000004,0.73876953,0.4979939453125,19.325995555615,7.244854211374498,430500726.0,-1036460368,-104.39999999999998,1.183,56.27,32369,33459,32323,-41.951218,24.939024,23.90244,32755,32494,31249,0.98,0.65,-0.24,2.0,0.0,1.0,1.0
964868679,698,2020-07-28/964868679s698ms.jpg,964868679s698ms.jpg,456,26287,33739,31770,-0.47460938,0.49902344,3.178711,-4.654328076377,4.893748217876,31.172506228149995,430499215.0,-1036460195,-93.0,1.291,56.27,32280,32653,32471,7.1951220000000005,15.914634,29.329268,32763,32504,31256,1.07,0.71,-0.23,2.0,0.0,1.0,1.0
964868679,698,2020-07-28/964868679s698ms.jpg,964868679s698ms.jpg,396,29271,32489,34065,0.13574219,-0.62158203,1.7216797,1.3311761475635,-6.0956374144995,16.883910230004997,430499353.0,-1036460246,-94.0,1.236,56.27,33390,32676,32660,5.792683,4.390244,-38.353657,32761,32513,31256,1.02,0.68,-0.23,2.0,0.0,1.0,1.0
964868679,698,2020-07-28/964868679s698ms.jpg,964868679s698ms.jpg,386,31422,32930,34195,-0.079589844,-0.6850586,0.6713866999999999,-0.7805097436626001,-6.718129919689999,6.584054381554999,430499386.0,-1036460255,-94.39999999999998,1.215,56.27,33496,32553,32840,13.292682999999998,-6.5853660000000005,-44.817074,32762,32516,31256,1.01,0.67,-0.23,2.0,0.0,1.0,1.0
964868679,698,2020-07-28/964868679s698ms.jpg,964868679s698ms.jpg,356,32679,32939,34050,-0.083984375,-0.6142578000000001,0.057617188,-0.82360537109375,-6.023811254369999,0.5650315967001999,430499447.0,-1036460253,-95.0,1.169,56.27,33616,32722,32766,2.987805,-2.0731707,-52.134148,32758,32497,31259,0.97,0.64,-0.23,2.0,0.0,1.0,1.0
964868679,698,2020-07-28/964868679s698ms.jpg,964868679s698ms.jpg,276,29883,32367,32347,0.1953125,0.21728516,1.4228516000000002,1.915361328125,2.130839514314,13.953407643139998,430499642.0,-1036460222,-97.39999999999998,1.18,56.27,33183,33012,32955,-14.695122,-13.597561,-25.731707,32761,32491,31257,0.98,0.65,-0.23,2.0,0.0,1.0,1.0
964868679,698,2020-07-28/964868679s698ms.jpg,964868679s698ms.jpg,286,30163,32670,31743,0.04736328,0.51220703,1.2861328,0.464475109812,5.0230350707495,12.61265422312,430499608.0,-1036460217,-97.2,1.169,56.27,33272,32955,33152,-11.219512,-25.609756,-31.158537,32764,32507,31254,0.97,0.64,-0.23,2.0,0.0,1.0,1.0
964868679,698,2020-07-28/964868679s698ms.jpg,964868679s698ms.jpg,256,31951,30918,33928,0.90283203,-0.5546875,0.41308594,8.853757726999499,-5.439626171875,4.050989233500999,430499712.0,-1036460229,-98.0,1.215,56.27,32782,32563,32886,12.682927,-9.390244,-1.2804878,32758,32476,31264,1.01,0.67,-0.23,2.0,0.0,1.0,1.0
964868679,698,2020-07-28/964868679s698ms.jpg,964868679s698ms.jpg,326,28451,32428,34189,0.16552734,-0.6821289,2.1220703,1.623268688811,-6.689399377185,20.810400707495,430499507.0,-1036460232,-96.0,1.145,56.27,33312,32471,32884,18.292683,-9.268292,-33.597559999999994,32759,32495,31260,0.95,0.63,-0.23,2.0,0.0,1.0,1.0
964868679,698,2020-07-28/964868679s698ms.jpg,964868679s698ms.jpg,336,29066,33068,33386,-0.14697266,-0.29003906,1.8217773,-1.441309436189,-2.844311547749,17.865532359044995,430499484.0,-1036460237,-95.60000000000002,1.147,56.27,33485,32658,32939,6.890244,-12.621951,-44.146343,32764,32519,31252,0.95,0.63,-0.23,2.0,0.0,1.0,1.0
964868681,700,2020-07-28/964868681s700ms.jpg,964868681s700ms.jpg,655,32031,32897,34367,-0.06347656,-0.76904297,0.37402344,-0.622492407124,-7.541735241750501,3.667916967876,430500139.0,-1036458914,-81.39999999999998,1.36,56.27,32291,32863,32558,-5.609756,10.609756,28.658537,32739,32462,31323,1.13,0.75,-0.15,3.0,1.0,2.0,3.0
964868681,700,2020-07-28/964868681s700ms.jpg,964868681s700ms.jpg,575,32763,33304,34651,-0.26220703,-0.90771484,0.016601562,-2.5713725707495,-8.901641735685999,0.1628057079873,430499967.0,-1036458926,-81.39999999999998,1.388,56.27,32664,32672,32621,6.0365853,6.768292999999999,5.914634,32731,32440,31331,1.15,0.77,-0.15,3.0,1.0,2.0,3.0
964868681,700,2020-07-28/964868681s700ms.jpg,964868681s700ms.jpg,746,36604,32052,35501,0.3491210999999999,-1.3227539,-1.8588867,3.423708435315,-12.971784533435,-18.229451256555,430500309.0,-1036458900,-81.60000000000002,1.3019999999999998,56.27,31832,32466,32619,18.59756,6.890244,56.646343,32731,32421,31335,1.08,0.72,-0.16,3.0,1.0,2.0,3.0
964868681,700,2020-07-28/964868681s700ms.jpg,964868681s700ms.jpg,948,36813,31621,34474,0.5595703000000001,-0.82128906,-1.9609375,5.4875100824950005,-8.054094360249,-19.230227734375,430500729.0,-1036458857,-82.0,1.186,56.27,32979,32440,33304,20.182926,-34.878048,-13.292682999999998,32730,32463,31333,0.98,0.65,-0.16,3.0,1.0,2.0,3.0
964868681,700,2020-07-28/964868681s700ms.jpg,964868681s700ms.jpg,938,36216,31309,35609,0.71191406,-1.3754883,-1.6694336,6.981492016499,-13.488932337195,-16.371551013439998,430500705.0,-1036458854,-82.0,1.192,56.27,32925,32287,33290,29.512196000000003,-34.024390000000004,-10.0,32724,32437,31339,0.99,0.66,-0.16,3.0,1.0,2.0,3.0
964868681,700,2020-07-28/964868681s700ms.jpg,964868681s700ms.jpg,838,29277,32960,33417,-0.09423828,-0.30517578,1.71875,-0.924161828562,-2.992752062937,16.855179687499998,430500494.0,-1036458861,-81.80000000000003,1.276,56.27,32251,32778,33092,-0.42682928,-21.951220000000003,31.09756,32740,32453,31322,1.06,0.7,-0.16,3.0,1.0,2.0,3.0
964868681,700,2020-07-28/964868681s700ms.jpg,964868681s700ms.jpg,788,25990,33539,33182,-0.37695312,-0.19042969,3.3237305,-3.696647314248,-1.8674773194385,32.594661707825,430500402.0,-1036458903,-81.80000000000003,1.289,56.27,32006,33311,33206,-32.926829999999995,-28.90244,46.036587,32739,32448,31323,1.07,0.71,-0.16,3.0,1.0,2.0,3.0
964868681,700,2020-07-28/964868681s700ms.jpg,964868681s700ms.jpg,500,31433,32986,33439,-0.106933594,-0.31591797,0.6660156,-1.0486603296001,-3.0980969605004995,6.531381883740001,430499827.0,-1036458969,-81.19999999999997,1.423,56.27,32769,32938,32958,-10.182927,-13.780488,-0.4878049,32737,32470,31322,1.18,0.79,-0.15,3.0,1.0,2.0,3.0
964868681,700,2020-07-28/964868681s700ms.jpg,964868681s700ms.jpg,186,30778,34384,31981,-0.7895508000000001,0.3959960999999999,0.98583984,-7.742848352819999,3.883395154065,9.667786266936,430499271.0,-1036459105,-81.0,1.394,56.27,33532,32913,32649,-8.658536999999999,5.060975599999999,-47.012196,32737,32482,31320,1.15,0.77,-0.14,3.0,1.0,2.0,3.0
964868681,700,2020-07-28/964868681s700ms.jpg,964868681s700ms.jpg,116,29262,32736,32936,0.015136719,-0.0703125,1.7260741999999998,0.1484405053813499,-0.689530078125,16.92700555343,430499126.0,-1036459090,-81.0,1.469,56.27,33587,32834,33054,-3.8414633,-19.634146,-50.365852,32731,32457,31330,1.22,0.81,-0.14,3.0,1.0,2.0,3.0
964868681,700,2020-07-28/964868681s700ms.jpg,964868681s700ms.jpg,16,30640,33076,32427,-0.1508789,0.17822266,1.0532226999999998,-1.479616564685,1.747767248689,10.328586390955,430498949.0,-1036459151,-81.0,1.367,56.27,33951,32843,33578,-4.390244,-51.585365,-72.560974,32736,32451,31329,1.13,0.75,-0.14,3.0,1.0,2.0,3.0
964868681,700,2020-07-28/964868681s700ms.jpg,964868681s700ms.jpg,246,31226,32675,31801,0.044921875,0.48388672,0.76708984,0.44053310546875,4.745307702688001,7.522581579435999,430499368.0,-1036459126,-81.0,1.371,56.27,32696,32764,32376,0.42682928,21.707317,3.9634147,32738,32480,31321,1.13,0.76,-0.14,3.0,1.0,2.0,3.0
964868681,700,2020-07-28/964868681s700ms.jpg,964868681s700ms.jpg,236,31871,32871,32259,-0.05078125,0.2602539,0.45214844,-0.4979939453125,2.5522189084349995,4.434061499126,430499355.0,-1036459128,-81.0,1.383,56.27,32823,32795,32220,-1.4634147,31.219513,-3.7804878,32731,32460,31325,1.15,0.76,-0.14,3.0,1.0,2.0,3.0
964868681,700,2020-07-28/964868681s700ms.jpg,964868681s700ms.jpg,440,34111,32536,35139,0.11279297,-1.1459961,-0.64160156,1.1061211792505,-11.238382654065,-6.291961938374,430499659.0,-1036459022,-81.19999999999997,1.3730000000000002,56.27,32725,32455,32799,19.268293,-4.0853660000000005,2.195122,32732,32441,31329,1.14,0.76,-0.15,3.0,1.0,2.0,3.0
964868681,700,2020-07-28/964868681s700ms.jpg,964868681s700ms.jpg,380,29718,32740,33552,0.013183594,-0.37109375,1.503418,0.1292868921001,-3.6391865234375,14.743494129699998,430499560.0,-1036459055,-81.0,1.379,56.27,32128,32754,32929,1.0365853,-12.012196,38.59756,32733,32437,31327,1.14,0.76,-0.15,3.0,1.0,2.0,3.0
