utc_s (s),utc_ms (ms)_x,file_path,filename,utc_ms (ms)_y,accel_x (counts),accel_y (counts),accel_z (counts),calibrated_accel_x (g),calibrated_accel_y (g),calibrated_accel_z (g),calibrated_accel_x (m/s^2),calibrated_accel_y (m/s^2),calibrated_accel_z (m/s^2),position_lat (semicircles),position_long (semicircles),enhanced_altitude (m),enhanced_speed (m/s),heading (degrees),gyro_x (counts),gyro_y (counts),gyro_z (counts),calibrated_gyro_x (deg/s),calibrated_gyro_y (deg/s),calibrated_gyro_z (deg/s),mag_x (counts),mag_y (counts),mag_z (counts),velocity (m/s)1,velocity (m/s)2,velocity (m/s)3,tsm1_original,tsm1_k2,tsm1_k3,tsm1_k4
964868685,704,2020-07-28/964868685s704ms.jpg,964868685s704ms.jpg,713,32528,32847,32344,-0.0390625,0.21875,0.13134766,-0.383072265625,2.1452046875,1.288080529939,430511256.0,-1036451325,-90.0,2.268,58.2,33244,32978,32934,-12.621951,-12.317073,-29.451220000000003,32714,32466,31344,1.92,1.19,-0.27,3.0,1.0,2.0,3.0
964868685,704,2020-07-28/964868685s704ms.jpg,964868685s704ms.jpg,672,30080,33647,33873,-0.4296875,-0.52783203,1.3266601999999998,-4.213794921875,-5.1762639769995,13.01009225033,430511125.0,-1036451499,-89.80000000000003,2.25,59.19,33432,32786,33185,-0.91463417,-27.621952,-40.914635,32722,32475,31341,1.93,1.15,-0.27,3.0,1.0,2.0,3.0
964868685,704,2020-07-28/964868685s704ms.jpg,964868685s704ms.jpg,662,33247,33285,30363,-0.2529297,1.1860351999999998,-0.21972656,-2.480393042505,11.63103209408,-2.154781469624,430511103.0,-1036451533,-89.80000000000003,2.248,59.62,33416,32565,33155,12.560976,-25.792683,-39.939026,32721,32477,31342,1.93,1.13,-0.27,3.0,1.0,2.0,3.0
964868685,704,2020-07-28/964868685s704ms.jpg,964868685s704ms.jpg,592,38430,31883,35420,0.43164062,-1.2832031000000002,-2.7504883,4.232948486122998,-12.583923680615,-26.973076087195,430510965.0,-1036451784,-89.60000000000002,2.109,56.35,32398,32017,33201,45.97561,-28.59756,22.134146,32714,32439,31354,1.75,1.16,-0.27,3.0,1.0,2.0,3.0
964868685,704,2020-07-28/964868685s704ms.jpg,964868685s704ms.jpg,562,26993,32975,31097,-0.1015625,0.8276367,2.8339844,-0.995987890625,8.116343444055001,27.791893116259995,430510913.0,-1036451883,-89.60000000000002,2.085,54.34,32295,32531,33205,14.634147,-28.841463,28.414635,32716,32423,31350,1.69,1.21,-0.26,3.0,1.0,2.0,3.0
964868685,704,2020-07-28/964868685s704ms.jpg,964868685s704ms.jpg,542,27867,32569,32627,0.09667969,0.080566406,2.4072266,0.9481038819385,0.7900865453998999,23.60682873689,430510872.0,-1036451947,-89.39999999999998,2.072,54.12,32178,32497,33025,16.707317,-17.865854000000002,35.548782,32720,32432,31344,1.67,1.21,-0.26,3.0,1.0,2.0,3.0
964868685,704,2020-07-28/964868685s704ms.jpg,964868685s704ms.jpg,763,31440,33512,32218,-0.36376953,0.28027344,0.66259766,-3.5673604613745,2.748543530376,6.497863342439,430511481.0,-1036451030,-90.0,2.432,57.5,32812,33383,32735,-37.317074,-0.18292683,-3.109756,32729,32481,31334,2.05,1.3,-0.27,3.0,1.0,2.0,3.0
964868685,704,2020-07-28/964868685s704ms.jpg,964868685s704ms.jpg,986,31973,32472,33106,0.14404297,-0.15332031,0.40234375,1.4125789917504998,-1.5035586180614997,3.9456443359375,430511913.0,-1036450003,-90.60000000000002,2.396,64.58,32714,32710,33176,3.719512200000001,-27.073172,2.8658535,32733,32454,31329,2.16,1.02,-0.27,3.0,1.0,2.0,3.0
964868685,704,2020-07-28/964868685s704ms.jpg,964868685s704ms.jpg,966,26438,32851,34049,-0.041015625,-0.61376953,3.1049805,-0.40222587890625,-6.0190229613745,30.449457020325,430511881.0,-1036450079,-90.60000000000002,2.418,65.08,32563,33021,33450,-15.243902,-43.780487,12.073171,32739,32472,31320,2.19,1.01,-0.27,3.0,1.0,2.0,3.0
964868685,704,2020-07-28/964868685s704ms.jpg,964868685s704ms.jpg,956,27039,32999,31864,-0.11328125,0.453125,2.8115234,-1.1109095703125,4.44363828125,27.57162595061,430511866.0,-1036450121,-90.60000000000002,2.425,65.32,32514,32931,33230,-9.756098,-30.365854,15.060976,32740,32479,31320,2.2,1.01,-0.27,3.0,1.0,2.0,3.0
964868685,704,2020-07-28/964868685s704ms.jpg,964868685s704ms.jpg,783,32635,32553,29301,0.10449219,1.7045898000000002,0.07910156,1.0247183350635,16.71631556217,0.7757213133740001,430511552.0,-1036450880,-90.2,2.604,61.18,32803,33545,32837,-47.19512,-6.402439,-2.5609756,32723,32456,31335,2.28,1.25,-0.27,3.0,1.0,2.0,3.0
964868685,704,2020-07-28/964868685s704ms.jpg,964868685s704ms.jpg,996,32730,32579,31577,0.091796875,0.5932616999999999,0.032714844,0.9002198242187499,5.817909850305001,0.3208230249125999,430511929.0,-1036449967,-90.60000000000002,2.387,64.44,32789,32399,33178,22.682926,-27.195122,-1.7073171000000005,32731,32452,31331,2.15,1.03,-0.27,3.0,1.0,2.0,3.0
964868685,704,2020-07-28/964868685s704ms.jpg,964868685s704ms.jpg,169,29996,33005,32654,-0.11621094,0.06738281,1.3676758,-1.139640014751,0.6607996336865,13.41231788407,430509726.0,-1036453325,-88.60000000000002,1.963,74.14,32286,32705,32078,4.02439,39.878048,28.963415,32715,32481,31336,1.88,0.53,-0.26,3.0,1.0,2.0,3.0
964868685,704,2020-07-28/964868685s704ms.jpg,964868685s704ms.jpg,128,30991,32661,32450,0.051757812,0.16699219,0.88183594,0.5075707470498,1.6376339600635,8.647856421000997,430509654.0,-1036453473,-88.39999999999998,1.811,75.08,33063,32788,32260,-1.0365853,28.780487,-18.414635,32720,32522,31328,1.75,0.46,-0.26,3.0,1.0,2.0,3.0
964868685,704,2020-07-28/964868685s704ms.jpg,964868685s704ms.jpg,98,30627,33217,35047,-0.21972656,-1.1010742,1.0595703,-2.154781469624,-10.79784930343,10.390835082495,430509603.0,-1036453572,-88.39999999999998,1.7919999999999998,75.85,33524,32477,32387,17.926828,21.036585,-46.52439,32711,32508,31334,1.73,0.43,-0.26,3.0,1.0,2.0,3.0
964868685,704,2020-07-28/964868685s704ms.jpg,964868685s704ms.jpg,88,31050,33329,34554,-0.27441406,-0.86035156,0.85302734,-2.6910826414990003,-8.437166625874,8.365340563811001,430509590.0,-1036453598,-88.39999999999998,1.8,76.16,33581,32480,32469,17.743902,16.036585000000002,-50.0,32710,32508,31334,1.74,0.43,-0.26,3.0,1.0,2.0,3.0
964868685,704,2020-07-28/964868685s704ms.jpg,964868685s704ms.jpg,249,30678,33169,33001,-0.19628906,-0.10205078,1.034668,-1.924938110249,-1.0007762816869998,10.1466269422,430509970.0,-1036453000,-88.80000000000003,1.965,69.24,31546,32863,32263,-5.609756,28.59756,74.085365,32725,32480,31335,1.83,0.69,-0.26,3.0,1.0,2.0,3.0
964868685,704,2020-07-28/964868685s704ms.jpg,964868685s704ms.jpg,462,29893,33160,32971,-0.19189453,-0.087402344,1.4179688,-1.8818424926245,-0.8571241967875999,13.90552373252,430510723.0,-1036452179,-89.19999999999997,2.105,53.76,31986,32812,32752,-2.5,-1.2195122,47.256096,32732,32462,31332,1.69,1.24,-0.26,3.0,1.0,2.0,3.0
964868685,704,2020-07-28/964868685s704ms.jpg,964868685s704ms.jpg,432,31351,33473,33005,-0.34472656,-0.104003906,0.7060546999999999,-3.380612719624,-1.0199299047749,6.924031323755,430510658.0,-1036452256,-89.19999999999997,2.071,55.66,32174,32894,32735,-7.5,-0.18292683,35.792683000000004,32719,32433,31341,1.71,1.16,-0.26,3.0,1.0,2.0,3.0
964868685,704,2020-07-28/964868685s704ms.jpg,964868685s704ms.jpg,341,30939,32994,32833,-0.110839844,-0.020019531,0.90722656,-1.0869675561626,-0.19632453368115,8.896853344623999,430510185.0,-1036452708,-89.0,1.944,63.97,32169,32891,32668,-7.3170733,3.902439,36.09756,32727,32463,31332,1.74,0.85,-0.26,3.0,1.0,2.0,3.0
964868643,729,2020-07-28/964868643s729ms.jpg,964868643s729ms.jpg,671,30453,32517,33549,0.12207031,-0.3696289,1.1445312,1.1971008055615,-3.624821252185,11.224016892480002,430439338.0,-1036520534,-61.600000000000016,4.575,347.28,32603,32626,32638,8.841463000000001,5.731707,9.634147,32707,32483,31347,-1.0,4.46,-0.92,1.0,0.0,0.0,1.0
964868643,729,2020-07-28/964868643s729ms.jpg,964868643s729ms.jpg,681,31112,32439,33462,0.16015625,-0.32714844,0.8227539,1.5705962890624998,-3.208230249126,8.068459533435,430439289.0,-1036520615,-62.0,4.567,347.03,32569,32514,32648,15.670732,5.121951,11.707317,32703,32480,31351,-1.02,4.45,-0.93,1.0,0.0,0.0,1.0
964868643,729,2020-07-28/964868643s729ms.jpg,964868643s729ms.jpg,702,31708,32502,33940,0.12939453,-0.5605469,0.5317383000000001,1.2689268676245,-5.497087256884999,5.214571399695,430439324.0,-1036520712,-62.399999999999984,4.564,346.77,32549,32447,32674,19.756098,3.5365853,12.926829,32705,32482,31349,-1.04,4.44,-0.94,1.0,0.0,0.0,1.0
964868643,729,2020-07-28/964868643s729ms.jpg,964868643s729ms.jpg,591,30598,33039,33470,-0.1328125,-0.3310547,1.0737305,-1.302445703125,-3.2465375737549995,10.529699207825,430439090.0,-1036520198,-60.0,4.417,348.79,32711,32742,32753,1.7682927,-1.2804878,3.0487804,32706,32480,31347,-0.85,4.33,-0.89,1.0,0.0,0.0,1.0
964868643,729,2020-07-28/964868643s729ms.jpg,964868643s729ms.jpg,621,31383,32841,32802,-0.036132812,-0.0048828125,0.6904296999999999,-0.3543418407998,-0.047884033203125,6.770802417504999,430439154.0,-1036520334,-60.600000000000016,4.4,348.1,32705,32663,32644,6.5853660000000005,5.365854,3.4146342000000005,32707,32481,31345,-0.9,4.3,-0.9,1.0,0.0,0.0,1.0
964868643,729,2020-07-28/964868643s729ms.jpg,964868643s729ms.jpg,601,31410,33179,33977,-0.20117188,-0.5786133000000001,0.6772461,-1.972822217002,-5.674258118445,6.641515466564998,430439088.0,-1036520257,-60.399999999999984,4.405,348.64,32724,32740,32644,1.8902439,5.365854,2.2560976000000004,32708,32484,31345,-0.86,4.31,-0.89,1.0,0.0,0.0,1.0
964868643,729,2020-07-28/964868643s729ms.jpg,964868643s729ms.jpg,521,30919,32791,33128,-0.01171875,-0.1640625,0.9169921999999998,-0.1149216796875,-1.608903515625,8.99262155813,430439136.0,-1036519800,-58.600000000000016,4.519,351.7,32744,32695,32749,4.634146,-1.0365853,1.0365853,32705,32476,31346,-0.65,4.47,-0.84,1.0,0.0,0.0,1.0
964868643,729,2020-07-28/964868643s729ms.jpg,964868643s729ms.jpg,824,30383,32648,32248,0.05810547,0.265625,1.1787108999999998,0.5698200073755,2.60489140625,11.559205247485002,430439752.0,-1036521442,-58.19999999999999,4.746,343.53,32567,32757,32793,0.85365856,-3.719512200000001,11.829268,32712,32502,31343,-1.34,4.55,-0.56,1.0,0.0,0.0,1.0
964868643,729,2020-07-28/964868643s729ms.jpg,964868643s729ms.jpg,814,31090,32434,32833,0.16259766,-0.020019531,0.8334961,1.594538342439,-0.19632453368115,8.173804529064999,430439667.0,-1036521382,-59.19999999999999,4.709,343.53,32585,32664,32778,6.52439,-2.804878,10.731708,32715,32516,31342,-1.33,4.51,-0.63,1.0,0.0,0.0,1.0
964868643,729,2020-07-28/964868643s729ms.jpg,964868643s729ms.jpg,884,30423,32762,32844,0.0024414061999999,-0.025390625,1.1591797,0.0239420161112299,-0.24899697265625,11.367669605004997,430440048.0,-1036521682,-56.80000000000001,4.863,343.66,32606,32753,32839,1.097561,-6.52439,9.45122,32711,32505,31347,-1.36,4.66,-0.43,1.0,0.0,0.0,1.0
964868643,729,2020-07-28/964868643s729ms.jpg,964868643s729ms.jpg,188,30121,32490,33438,0.1352539,-0.3154297,1.3066406000000002,1.326387658435,-3.093308667505,12.81376703999,430438749.0,-1036518001,-51.399999999999984,4.921,354.0,32514,32890,32980,-7.256098,-15.121951,15.060976,32715,32474,31336,-0.51,4.89,-0.62,1.0,0.0,0.0,1.0
964868643,729,2020-07-28/964868643s729ms.jpg,964868643s729ms.jpg,164,30456,32649,31992,0.057617188,0.390625,1.1430664,0.5650315967001999,3.83072265625,11.20965211156,430438615.0,-1036517933,-51.19999999999999,4.927,353.44,32474,32752,32820,1.1585366,-5.365854,17.5,32724,32495,31328,-0.56,4.89,-0.61,1.0,0.0,0.0,1.0
964868643,729,2020-07-28/964868643s729ms.jpg,964868643s729ms.jpg,144,32727,32555,34604,0.103515625,-0.8847655999999999,0.034179688,1.01514150390625,-8.67658657124,0.3351882373252,430438486.0,-1036517879,-51.0,4.933,352.68,32415,32777,32760,-0.36585367,-1.7073171000000005,21.09756,32727,32503,31329,-0.62,4.89,-0.6,1.0,0.0,0.0,1.0
964868643,729,2020-07-28/964868643s729ms.jpg,964868643s729ms.jpg,113,29389,32736,31937,0.015136719,0.41748047,1.6640625,0.1484405053813499,4.0940848511255,16.318878515625,430438376.0,-1036517760,-50.600000000000016,4.982,352.77,32431,32848,32841,-4.6951220000000005,-6.6463413000000005,20.121952,32719,32478,31334,-0.62,4.94,-0.59,1.0,0.0,0.0,1.0
964868643,729,2020-07-28/964868643s729ms.jpg,964868643s729ms.jpg,33,30588,33201,33398,-0.21191406,-0.29589844,1.0786133,-2.078167016499,-2.901772436626,10.577583118445,430438202.0,-1036517412,-49.600000000000016,5.221,353.36,32672,32882,32837,-6.768292999999999,-6.402439,5.4268293,32721,32484,31330,-0.6,5.18,-0.57,1.0,0.0,0.0,1.0
964868643,729,2020-07-28/964868643s729ms.jpg,964868643s729ms.jpg,13,30093,32920,32534,-0.07470703,0.12597656,1.3203125,-0.7326256957494999,1.2354080321239995,12.947842578125,430438240.0,-1036517238,-49.19999999999999,5.281000000000001,355.27,32717,32846,32856,-4.5731707,-7.560975599999999,2.682927,32726,32508,31327,-0.43,5.26,-0.56,1.0,0.0,0.0,1.0
964868643,729,2020-07-28/964868643s729ms.jpg,964868643s729ms.jpg,238,31736,32864,34273,-0.04736328,-0.72314453,0.5180664,-0.464475109812,-7.0916253051245,5.080495861559999,430438881.0,-1036518289,-52.600000000000016,4.89,354.4,32546,32755,32934,0.9756098,-12.317073,13.109756,32720,32488,31332,-0.47,4.86,-0.66,1.0,0.0,0.0,1.0
964868643,729,2020-07-28/964868643s729ms.jpg,964868643s729ms.jpg,481,30745,32804,33224,-0.018066406,-0.2109375,1.0019531,-0.1771709203998999,-2.068590234375,9.825803368115,430439164.0,-1036519528,-57.600000000000016,4.561,353.89,32738,32675,32739,5.8536587,-0.42682928,1.402439,32717,32522,31335,-0.48,4.53,-0.82,1.0,0.0,0.0,1.0
964868643,729,2020-07-28/964868643s729ms.jpg,964868643s729ms.jpg,338,31136,33160,33831,-0.19189453,-0.5073242,0.81103516,-1.8818424926245,-4.975150865930001,7.953537951813999,430439075.0,-1036518756,-55.0,4.827,355.98,32649,32641,32815,7.9268293,-5.060975599999999,6.8292685,32715,32491,31335,-0.33,4.81,-0.75,1.0,0.0,0.0,1.0
964868643,729,2020-07-28/964868643s729ms.jpg,964868643s729ms.jpg,318,30104,33165,32947,-0.19433594,-0.075683594,1.3149414,-1.905784546001,-0.7422025171000999,12.89517008031,430439076.0,-1036518649,-54.600000000000016,4.876,356.19,32637,32682,32877,5.4268293,-8.841463000000001,7.560975599999999,32716,32495,31334,-0.32,4.86,-0.74,1.0,0.0,0.0,1.0
964868620,706,2020-07-28/964868620s706ms.jpg,964868620s706ms.jpg,694,30806,32762,33080,0.0024414061999999,-0.140625,0.97216797,0.0239420161112299,-1.37906015625,9.5337110230005,430419342.0,-1036536443,-41.80000000000001,1.756,60.66,32748,32763,32738,0.4878049,-0.36585367,0.79268295,32727,32554,31252,1.53,0.86,-0.07,1.0,0.0,0.0,0.0
964868620,706,2020-07-28/964868620s706ms.jpg,964868620s706ms.jpg,684,30974,32782,33044,-0.0073242188,-0.123046875,0.8901367,-0.07182605029502,-1.20667763671875,8.729259069054999,430419332.0,-1036536459,-41.80000000000001,1.778,61.38,32757,32770,32682,0.06097561,3.0487804,0.24390244,32729,32559,31250,1.56,0.85,-0.07,1.0,0.0,0.0,0.0
964868620,706,2020-07-28/964868620s706ms.jpg,964868620s706ms.jpg,583,30571,33390,32499,-0.30419922,0.1430664,1.0869141000000002,-2.983175280813,1.4030021115600002,10.658986158765,430419272.0,-1036536697,-41.60000000000002,1.973,63.85,32636,32801,32766,-1.8292683,-2.0731707,7.621950999999999,32727,32560,31250,1.77,0.86,-0.06,1.0,0.0,0.0,0.0
964868620,706,2020-07-28/964868620s706ms.jpg,964868620s706ms.jpg,561,31147,33018,32433,-0.122558594,0.17529297,0.80566406,-1.2018892358501,1.7190368042504998,7.900865453999,430419258.0,-1036536742,-41.60000000000002,2.027,64.13,32562,32750,32642,1.2804878,5.487805000000001,12.134147,32726,32557,31252,1.82,0.88,-0.06,1.0,0.0,0.0,0.0
964868620,706,2020-07-28/964868620s706ms.jpg,964868620s706ms.jpg,924,31616,32822,33778,-0.026855469,-0.4814452999999999,0.57666016,-0.26336218506885,-4.721365551245,5.655104358064,430419487.0,-1036536119,-42.19999999999999,1.318,47.59,32421,32772,32571,-0.06097561,9.817073,20.731707,32737,32577,31248,0.97,0.88,-0.09,1.0,0.0,0.0,0.0
964868620,706,2020-07-28/964868620s706ms.jpg,964868620s706ms.jpg,914,31015,32869,33558,-0.049804688,-0.37402344,0.8701171999999998,-0.4884171435752,-3.667916967876,8.532934839380001,430419474.0,-1036536131,-42.19999999999999,1.3130000000000002,47.89,32406,32822,32603,-3.109756,7.865854,21.646341,32732,32561,31252,0.97,0.88,-0.09,1.0,0.0,0.0,0.0
964868620,706,2020-07-28/964868620s706ms.jpg,964868620s706ms.jpg,894,30122,33085,32694,-0.15527344,0.047851562,1.3061523000000002,-1.522712280376,0.4692635204873,12.808978452795,430419452.0,-1036536148,-42.19999999999999,1.306,50.03,32431,32736,32628,2.1341465,6.3414636,20.121952,32729,32552,31252,1.0,0.83,-0.09,1.0,0.0,0.0,0.0
964868620,706,2020-07-28/964868620s706ms.jpg,964868620s706ms.jpg,814,30452,32948,33210,-0.088378906,-0.20410156,1.1450195,-0.8667009985248999,-2.001552563374,11.228805479675,430419384.0,-1036536244,-42.0,1.456,50.73,32770,32848,32666,-4.6951220000000005,4.02439,-0.5487805,32730,32562,31248,1.12,0.92,-0.08,1.0,0.0,0.0,0.0
964868620,706,2020-07-28/964868620s706ms.jpg,964868620s706ms.jpg,190,30227,32162,32578,0.29541016,0.10449219,1.2548828,2.8969840455639995,1.0247183350635,12.30619641062,430419002.0,-1036537685,-41.0,1.786,79.38,32819,32804,32810,-2.012195,-4.756098000000001,-3.5365853,32729,32581,31253,1.75,0.32,-0.04,1.0,0.0,0.0,0.0
964868620,706,2020-07-28/964868620s706ms.jpg,964868620s706ms.jpg,138,31040,33103,33075,-0.1640625,-0.1381836,0.85791016,-1.608903515625,-1.3551182009399998,8.413224670563999,430418989.0,-1036537824,-41.0,1.625,81.02,32841,32713,32733,3.5365853,-0.06097561,-4.878049,32729,32578,31254,1.6,0.25,-0.04,1.0,0.0,0.0,0.0
964868620,706,2020-07-28/964868620s706ms.jpg,964868620s706ms.jpg,78,29957,33106,31883,-0.16552734,0.44384766,1.3867188,-1.623268688811,4.352658654939,13.59906592002,430418982.0,-1036537957,-41.0,1.649,81.45,32832,32719,32781,3.1707318,-2.987805,-4.3292685,32726,32563,31256,1.63,0.24,-0.04,1.0,0.0,0.0,0.0
964868620,706,2020-07-28/964868620s706ms.jpg,964868620s706ms.jpg,68,30556,33415,32778,-0.31640625,0.0068359375,1.0942383,-3.1028853515625,0.0670376464843749,10.730812024695,430418981.0,-1036537981,-41.0,1.568,81.14,32850,32739,32740,1.9512196,-0.4878049,-5.4268293,32730,32573,31253,1.54,0.24,-0.04,1.0,0.0,0.0,0.0
964868620,706,2020-07-28/964868620s706ms.jpg,964868620s706ms.jpg,38,30682,32675,32856,0.044921875,-0.03125,1.0327148000000002,0.44053310546875,-0.3064578125,10.12747259342,430418983.0,-1036538045,-41.0,1.58,80.36,32763,32864,32684,-5.6707315000000005,2.9268293,-0.12195122,32724,32551,31259,1.55,0.26,-0.04,1.0,0.0,0.0,0.0
964868620,706,2020-07-28/964868620s706ms.jpg,964868620s706ms.jpg,28,31020,32811,33134,-0.021484375,-0.16699219,0.8676758,-0.21068974609375,-1.6376339600635,8.508992884069999,430418986.0,-1036538066,-41.0,1.602,80.09,32767,32924,32750,-9.329268,-1.097561,-0.36585367,32724,32553,31261,1.57,0.27,-0.04,1.0,0.0,0.0,0.0
964868620,706,2020-07-28/964868620s706ms.jpg,964868620s706ms.jpg,18,30555,32869,33160,-0.049804688,-0.1796875,1.0947266000000002,-0.4884171435752,-1.762132421875,10.735600611889998,430418989.0,-1036538085,-41.0,1.621,80.02,32758,32917,32928,-8.902439,-11.95122,0.18292683,32727,32565,31259,1.59,0.28,-0.04,1.0,0.0,0.0,0.0
964868620,706,2020-07-28/964868620s706ms.jpg,964868620s706ms.jpg,240,30206,32665,32684,0.049804688,0.052734375,1.2651367,0.4884171435752,0.51714755859375,12.406752819055,430419015.0,-1036537522,-41.19999999999999,1.689,76.35,32862,32774,32857,-0.18292683,-7.621950999999999,-6.1585364,32721,32550,31256,1.64,0.39,-0.05,1.0,0.0,0.0,0.0
964868620,706,2020-07-28/964868620s706ms.jpg,964868620s706ms.jpg,441,30704,33040,33361,-0.13330078,-0.27783203,1.0219726999999998,-1.307234094187,-2.7246014769995,10.022128578455,430419098.0,-1036537038,-41.39999999999998,1.959,74.29,32837,32728,32736,2.621951,-0.24390244,-4.634146,32726,32567,31248,1.88,0.53,-0.05,1.0,0.0,0.0,0.0
964868620,706,2020-07-28/964868620s706ms.jpg,964868620s706ms.jpg,360,30411,32583,33151,0.08984375,-0.17529297,1.1650391000000002,0.8810662109374999,-1.7190368042504998,11.425130690015,430419043.0,-1036537223,-41.19999999999999,1.971,75.61,32925,32772,32778,-0.06097561,-2.804878,-10.0,32730,32588,31244,1.9,0.48,-0.05,1.0,0.0,0.0,0.0
964868620,706,2020-07-28/964868620s706ms.jpg,964868620s706ms.jpg,270,31374,32837,33402,-0.034179688,-0.29785156,0.6948241999999999,-0.3351882373252,-2.920926000874,6.813897740930001,430419020.0,-1036537444,-41.19999999999999,1.715,76.18,32917,32779,32761,-0.4878049,-1.7682927,-9.512196,32729,32577,31249,1.66,0.4,-0.05,1.0,0.0,0.0,0.0
964868688,707,2020-07-28/964868688s707ms.jpg,964868688s707ms.jpg,707,29947,32895,32996,-0.0625,-0.099609375,1.3916016000000002,-0.612915625,-0.97683427734375,13.64694983064,430515884.0,-1036442325,-98.8,2.448,46.48,31658,32967,32414,-11.95122,19.390244,67.256096,32723,32482,31338,1.77,1.68,-0.31,3.0,1.0,2.0,3.0
964868688,707,2020-07-28/964868688s707ms.jpg,964868688s707ms.jpg,687,31851,32157,33881,0.29785156,-0.5317383000000001,0.46191406,2.920926000874,-5.214571399695,4.529829516499,430515823.0,-1036442410,-98.8,2.457,46.87,31833,32851,32250,-4.878049,29.390244,56.585365,32717,32471,31342,1.79,1.67,-0.31,3.0,1.0,2.0,3.0
964868688,707,2020-07-28/964868688s707ms.jpg,964868688s707ms.jpg,637,28998,33701,32501,-0.4560547,0.14208984,1.8549805,-4.4723688237550006,1.393425329436,18.191144520325,430515667.0,-1036442581,-98.60000000000002,2.272,47.52,32465,32950,32309,-10.914634,25.792683,18.04878,32723,32509,31333,1.67,1.53,-0.31,3.0,1.0,2.0,3.0
964868688,707,2020-07-28/964868688s707ms.jpg,964868688s707ms.jpg,627,29218,33879,33435,-0.54296875,-0.31396484,1.7475586,-5.324704492187498,-3.078943298186,17.137695544689997,430515636.0,-1036442617,-98.60000000000002,2.178,47.4,32562,32873,32400,-6.219512,20.243902,12.134147,32722,32513,31335,1.6,1.47,-0.31,3.0,1.0,2.0,3.0
964868688,707,2020-07-28/964868688s707ms.jpg,964868688s707ms.jpg,567,30287,33342,33046,-0.28076172,-0.12402344,1.2255858999999998,-2.7533319214380003,-1.216254467876,12.018891966235,430515464.0,-1036442787,-98.39999999999998,2.057,49.78,32040,32894,32219,-7.5,31.280487,43.963413,32708,32484,31343,1.57,1.32,-0.3,3.0,1.0,2.0,3.0
964868688,707,2020-07-28/964868688s707ms.jpg,964868688s707ms.jpg,940,34309,32350,32293,0.20361328,0.24365234,-0.73828125,1.996764172312,2.389413220061,-7.240065820312499,430515806.0,-1036441747,-96.60000000000002,2.111,52.67,32957,32632,32847,8.475610000000001,-7.012194999999999,-11.95122,32725,32471,31334,1.67,1.27,-0.3,3.0,1.0,2.0,3.0
964868688,707,2020-07-28/964868688s707ms.jpg,964868688s707ms.jpg,827,30442,33077,33386,-0.15136719,-0.29003906,1.1499023000000002,-1.4844050538135,-2.844311547749,11.276689390295,430516220.0,-1036441849,-99.2,2.358,46.13,32398,32869,33040,-5.97561,-18.780487,22.134146,32718,32452,31343,1.69,1.63,-0.31,3.0,1.0,2.0,3.0
964868688,707,2020-07-28/964868688s707ms.jpg,964868688s707ms.jpg,787,34882,32021,34559,0.3642578,-0.86279297,-1.0180664,3.57214875437,-8.461108679250499,-9.983820861559998,430516103.0,-1036441973,-99.0,2.39,46.3,31896,32536,32761,14.329268,-1.7682927,52.743904,32716,32440,31345,1.72,1.65,-0.31,3.0,1.0,2.0,3.0
964868688,707,2020-07-28/964868688s707ms.jpg,964868688s707ms.jpg,505,28615,33079,35342,-0.15234375,-1.2451172,2.0419922,-1.4939818359375,-12.21042858938,20.02510280813,430515325.0,-1036442933,-98.2,1.956,51.91,33284,32122,32815,39.573170000000005,-5.060975599999999,-31.890244,32707,32497,31338,1.53,1.2,-0.31,3.0,1.0,2.0,3.0
964868688,707,2020-07-28/964868688s707ms.jpg,964868688s707ms.jpg,163,22518,31372,29752,0.68115234,1.484375,5.019043,6.679822595061,14.556746093749998,49.219998035950006,430514692.0,-1036443961,-97.2,2.146,53.21,31266,33285,32476,-31.341463,15.609756,91.15854,32709,32498,31337,1.71,1.28,-0.31,3.0,1.0,2.0,3.0
964868688,707,2020-07-28/964868688s707ms.jpg,964868688s707ms.jpg,113,32794,32851,33955,-0.041015625,-0.5678711,0.0014648438,-0.40222587890625,-5.568913122814998,0.01436521045127,430514658.0,-1036444137,-97.0,2.147,46.62,32158,32160,31951,37.256096,47.621952,36.76829,32710,32541,31328,1.56,1.47,-0.31,3.0,1.0,2.0,3.0
964868688,707,2020-07-28/964868688s707ms.jpg,964868688s707ms.jpg,83,28578,32502,32104,0.12939453,0.3359375,2.0600586,1.2689268676245,3.294421484375,20.20227366969,430514644.0,-1036444207,-97.0,2.224,43.7,32284,32236,31715,32.621952,62.012196,29.085365000000003,32706,32538,31322,1.53,1.6,-0.31,3.0,1.0,2.0,3.0
964868688,707,2020-07-28/964868688s707ms.jpg,964868688s707ms.jpg,52,28065,33567,34557,-0.390625,-0.8618164,2.3105469,-3.83072265625,-8.45153179906,22.658724756885,430514647.0,-1036444283,-96.8,2.281,40.68,32715,32341,32089,26.219513,39.207317,2.804878,32706,32555,31315,1.48,1.72,-0.31,3.0,1.0,2.0,3.0
964868688,707,2020-07-28/964868688s707ms.jpg,964868688s707ms.jpg,32,32099,33926,33457,-0.56591797,-0.32470703,0.3408203,-5.5497594605005,-3.1842881957495,3.342305394995,430514615.0,-1036444338,-96.8,2.31,39.52,32646,32248,31908,31.890244,50.243904,7.012194999999999,32701,32545,31318,1.47,1.78,-0.31,3.0,1.0,2.0,3.0
964868688,707,2020-07-28/964868688s707ms.jpg,964868688s707ms.jpg,10,31683,33246,33296,-0.23388672,-0.24609375,0.5439453000000001,-2.293645202688,-2.4133552734375,5.334281176245,430514576.0,-1036444385,-96.60000000000002,2.356,39.26,32615,32781,31837,-0.6097561,54.57317,8.902439,32700,32548,31317,1.49,1.82,-0.31,3.0,1.0,2.0,3.0
964868688,707,2020-07-28/964868688s707ms.jpg,964868688s707ms.jpg,213,31341,32106,32689,0.3227539,0.05029297,0.7109375,3.1651345334350003,0.4932055542505,6.971915234375,430514708.0,-1036443822,-97.2,2.144,56.65,30829,32436,32566,20.426828,10.121951,117.80488,32715,32490,31337,1.79,1.17,-0.31,3.0,1.0,2.0,3.0
964868688,707,2020-07-28/964868688s707ms.jpg,964868688s707ms.jpg,455,31023,34618,28558,-0.9038086,2.0673828000000003,0.86621094,-8.86333460719,20.27409953562,8.494627514750999,430515252.0,-1036443089,-98.0,2.019,55.78,33357,33318,32563,-33.353657,10.304878,-36.341465,32719,32526,31327,1.66,1.13,-0.31,3.0,1.0,2.0,3.0
964868688,707,2020-07-28/964868688s707ms.jpg,964868688s707ms.jpg,324,31551,33160,27909,-0.19189453,2.3842773,0.60839844,-1.8818424926245,23.381772984045,5.966350561625999,430514963.0,-1036443482,-97.60000000000002,2.139,54.82,32634,33241,33104,-28.658537,-22.682926,7.743902,32717,32476,31337,1.74,1.23,-0.31,3.0,1.0,2.0,3.0
964868688,707,2020-07-28/964868688s707ms.jpg,964868688s707ms.jpg,294,30260,33633,33875,-0.42285156,-0.5288086,1.2387695,-4.146757250874,-5.1858408571900005,12.148178917175,430514850.0,-1036443566,-97.60000000000002,2.174,56.94,32239,33116,33251,-21.036585,-31.646341,31.829268,32714,32466,31342,1.82,1.18,-0.31,3.0,1.0,2.0,3.0
964868688,707,2020-07-28/964868688s707ms.jpg,964868688s707ms.jpg,354,28883,33070,37609,-0.14794922,-2.3520508,1.9111328,-1.4508862183129998,-23.06573897782,18.74181047312,430515077.0,-1036443378,-97.8,2.167,56.11,32928,32168,33200,36.76829,-28.536585,-10.182927,32715,32497,31337,1.79,1.2,-0.31,3.0,1.0,2.0,3.0
964868683,702,2020-07-28/964868683s702ms.jpg,964868683s702ms.jpg,649,33023,32924,34303,-0.076660156,-0.73779297,-0.11035156,-0.7517793188373999,-7.235277429250499,-1.082179125874,430506441.0,-1036455933,-85.19999999999997,2.057,20.63,31663,32880,32450,-6.6463413000000005,17.195122,66.95121999999999,32736,32421,31330,0.72,1.92,-0.23,3.0,1.0,2.0,3.0
964868683,702,2020-07-28/964868683s702ms.jpg,964868683s702ms.jpg,529,29855,33818,32703,-0.5131836,0.04345703,1.4365233999999998,-5.032611950939999,0.4261678832495,14.08748220061,430506093.0,-1036456059,-84.80000000000003,1.957,18.08,32535,32937,32414,-10.121951,19.390244,13.780488,32734,32453,31331,0.6,1.86,-0.22,3.0,1.0,2.0,3.0
964868683,702,2020-07-28/964868683s702ms.jpg,964868683s702ms.jpg,579,30505,33124,32605,-0.1743164,0.091308594,1.1191406000000002,-1.70945992406,0.8954314233501001,10.97502016499,430506230.0,-1036456023,-85.0,1.98,17.21,32315,32856,32307,-5.1829267,25.914635,27.195122,32730,32426,31335,0.58,1.89,-0.22,3.0,1.0,2.0,3.0
964868683,702,2020-07-28/964868683s702ms.jpg,964868683s702ms.jpg,770,25893,32669,30457,0.047851562,1.1401367,3.3710938,0.4692635204873,11.180921569055,33.059137013770005,430506752.0,-1036455812,-85.39999999999998,2.09,26.23,31533,33277,32624,-30.853659000000004,6.5853660000000005,74.87805,32736,32365,31322,0.92,1.87,-0.23,3.0,1.0,2.0,3.0
964868683,702,2020-07-28/964868683s702ms.jpg,964868683s702ms.jpg,980,29883,29971,36357,1.3652343999999998,-1.7407226999999998,1.4228516000000002,13.388375928760002,-17.070658265955,13.953407643139998,430507200.0,-1036455740,-85.80000000000003,1.758,18.01,32019,31860,33086,55.548782,-21.585365,45.243904,32730,32364,31330,0.54,1.67,-0.23,3.0,1.0,2.0,3.0
964868683,702,2020-07-28/964868683s702ms.jpg,964868683s702ms.jpg,830,27339,33962,33081,-0.5834961,-0.14111328,2.665039,-5.722142029064998,-1.383848547312,26.13510470935,430506896.0,-1036455785,-85.60000000000002,2.008,23.9,31661,32694,32682,4.6951220000000005,3.0487804,67.07316999999999,32741,32376,31317,0.81,1.83,-0.23,3.0,1.0,2.0,3.0
964868683,702,2020-07-28/964868683s702ms.jpg,964868683s702ms.jpg,820,26947,33994,32148,-0.5991211,0.31445312,2.8564453,-5.875370935314999,3.083731689248,28.012159301245,430506872.0,-1036455788,-85.60000000000002,2.023,24.62,31618,32719,32611,3.1707318,7.378049000000001,69.69511999999999,32738,32367,31320,0.84,1.83,-0.23,3.0,1.0,2.0,3.0
964868683,702,2020-07-28/964868683s702ms.jpg,964868683s702ms.jpg,217,30663,33602,33761,-0.40771484,-0.47314453,1.0419922,-3.998316735686,-4.6399628051245,10.21845280813,430505326.0,-1036456347,-84.0,2.109,33.33,32751,32904,32541,-8.109755999999999,11.646341,0.6097561,32728,32509,31318,1.15,1.76,-0.21,3.0,1.0,2.0,3.0
964868683,702,2020-07-28/964868683s702ms.jpg,964868683s702ms.jpg,136,30827,33256,32306,-0.23876953,0.23730469,0.96191406,-2.3415292113745,2.3271640381885,9.433154516499,430505132.0,-1036456471,-83.80000000000003,2.0980000000000003,32.34,32191,33072,32558,-18.353659,10.609756,34.756096,32720,32483,31321,1.12,1.77,-0.21,3.0,1.0,2.0,3.0
964868683,702,2020-07-28/964868683s702ms.jpg,964868683s702ms.jpg,106,31584,32801,33667,-0.016601562,-0.4272460999999999,0.59228516,-0.1628057079873,-4.189852966565,5.808333264313999,430504979.0,-1036456584,-83.80000000000003,2.043,31.09,31833,33055,32395,-17.317073999999998,20.54878,56.585365,32725,32518,31318,1.05,1.74,-0.2,3.0,1.0,2.0,3.0
964868683,702,2020-07-28/964868683s702ms.jpg,964868683s702ms.jpg,34,30884,33646,33127,-0.42919922,-0.16357422,0.93408203,-4.209006530812999,-1.604115124563,9.1602155394995,430504583.0,-1036456856,-83.60000000000002,1.917,27.37,31684,33011,32116,-14.634147,37.560974,65.67073,32716,32524,31315,0.88,1.7,-0.2,3.0,1.0,2.0,3.0
964868683,702,2020-07-28/964868683s702ms.jpg,964868683s702ms.jpg,24,31036,33676,32680,-0.44384766,0.0546875,0.8598633,-4.352658654939,0.5363011718749999,8.432378430944999,430504529.0,-1036456890,-83.60000000000002,1.926,27.57,31657,32963,32004,-11.707317,44.390244,67.31707,32718,32540,31313,0.89,1.7,-0.2,3.0,1.0,2.0,3.0
964868683,702,2020-07-28/964868683s702ms.jpg,964868683s702ms.jpg,479,30394,32840,33220,-0.03564453,-0.20898438,1.1733398000000002,-0.3495534301245,-2.049436670127,11.50653274967,430505943.0,-1036456094,-84.60000000000002,1.934,20.87,32677,32744,32566,1.6463414,10.121951,5.121951,32726,32440,31336,0.68,1.8,-0.22,3.0,1.0,2.0,3.0
964868683,702,2020-07-28/964868683s702ms.jpg,964868683s702ms.jpg,469,29940,33032,32724,-0.12939453,0.033203125,1.3950195,-1.2689268676245,0.32561142578125,13.680467979675,430505916.0,-1036456100,-84.60000000000002,1.941,21.73,32637,32732,32609,2.3780490000000003,7.5,7.560975599999999,32725,32434,31336,0.71,1.8,-0.22,3.0,1.0,2.0,3.0
964868683,702,2020-07-28/964868683s702ms.jpg,964868683s702ms.jpg,439,30966,33329,34051,-0.27441406,-0.6147461,0.89404297,-2.6910826414990003,-6.028599841564999,8.7675664917505,430505840.0,-1036456124,-84.60000000000002,1.958,22.88,32379,32556,32590,13.109756,8.658536999999999,23.292683,32727,32446,31333,0.76,1.8,-0.22,3.0,1.0,2.0,3.0
964868683,702,2020-07-28/964868683s702ms.jpg,964868683s702ms.jpg,389,30228,32857,33215,-0.043945312,-0.20654297,1.2543945,-0.4309562939248,-2.0254946167505,12.301407823425,430505706.0,-1036456175,-84.39999999999998,1.905,26.65,31774,32589,32389,11.097561,20.914635,60.182926,32728,32451,31333,0.85,1.7,-0.22,3.0,1.0,2.0,3.0
964868683,702,2020-07-28/964868683s702ms.jpg,964868683s702ms.jpg,357,29943,32758,33408,0.0043945312,-0.30078125,1.3935547,0.04309562939248,-2.9496564453125,13.666103198754998,430505619.0,-1036456212,-84.39999999999998,1.87,28.36,31693,32482,32265,17.621952,28.475609,65.12195,32740,32492,31318,0.88,1.64,-0.22,3.0,1.0,2.0,3.0
964868683,702,2020-07-28/964868683s702ms.jpg,964868683s702ms.jpg,347,30076,32715,34204,0.025390625,-0.6894531,1.3286133,0.24899697265625,-6.761225243115,13.029245618445,430505589.0,-1036456218,-84.39999999999998,1.88,29.53,31722,32433,32250,20.609756,29.390244,63.353657,32741,32496,31318,0.92,1.63,-0.22,3.0,1.0,2.0,3.0
964868683,702,2020-07-28/964868683s702ms.jpg,964868683s702ms.jpg,337,30632,32614,34752,0.07470703,-0.95703125,1.0571289,0.7326256957494999,-9.3852705078125,10.366893127185,430505564.0,-1036456222,-84.39999999999998,1.897,30.73,31794,32365,32230,24.756098,30.609756,58.963413,32738,32486,31319,0.96,1.63,-0.22,3.0,1.0,2.0,3.0
964868683,702,2020-07-28/964868683s702ms.jpg,964868683s702ms.jpg,307,31358,33056,32990,-0.14111328,-0.09667969,0.7026366999999999,-1.383848547312,-0.9481038819385,6.890512194055001,430505502.0,-1036456241,-84.19999999999997,1.962,32.58,32181,32685,32170,5.243901999999999,34.26829,35.365852000000004,32732,32473,31323,1.05,1.65,-0.22,3.0,1.0,2.0,3.0
964868680,699,2020-07-28/964868680s699ms.jpg,964868680s699ms.jpg,695,29732,33591,33731,-0.40234375,-0.4584960999999999,1.496582,-3.9456443359375,-4.496310779064999,14.6764558703,430498409.0,-1036459182,-81.19999999999997,1.354,56.27,31242,33001,32930,-14.02439,-12.073171,92.62195,32735,32347,31320,1.12,0.75,-0.12,3.0,1.0,2.0,3.0
964868680,699,2020-07-28/964868680s699ms.jpg,964868680s699ms.jpg,745,31410,32027,33809,0.36132812,-0.49658203,0.6772461,3.543418407998,-4.8698061644995,6.641515466564998,430498511.0,-1036459161,-81.19999999999997,1.37,56.27,31557,32545,33008,13.780488,-16.829268,73.414635,32737,32348,31317,1.13,0.76,-0.13,3.0,1.0,2.0,3.0
964868680,699,2020-07-28/964868680s699ms.jpg,964868680s699ms.jpg,755,30746,32011,34171,0.36914062,-0.67333984,1.0014648000000002,3.620032861123,-6.603208141936,9.82101478092,430498532.0,-1036459168,-81.39999999999998,1.374,56.27,31674,32509,33207,15.97561,-28.963415,66.28049,32734,32336,31320,1.14,0.76,-0.13,3.0,1.0,2.0,3.0
964868680,699,2020-07-28/964868680s699ms.jpg,964868680s699ms.jpg,522,30791,33242,31743,-0.2319336,0.51220703,0.9794921999999998,-2.27449163844,5.0230350707495,9.60553718313,430498090.0,-1036459303,-81.0,1.405,56.27,31986,32437,32842,20.365854,-6.707317,47.256096,32746,32406,31314,1.16,0.77,-0.12,3.0,1.0,2.0,3.0
964868680,699,2020-07-28/964868680s699ms.jpg,964868680s699ms.jpg,865,30935,32080,33314,0.33544922,-0.2548828,0.9091796999999998,3.289633093313,-2.4995464106200003,8.916007105004999,430498747.0,-1036459221,-81.0,1.382,56.27,32234,32262,33715,31.036585,-59.939026,32.134148,32730,32344,31326,1.14,0.76,-0.14,3.0,1.0,2.0,3.0
964868680,699,2020-07-28/964868680s699ms.jpg,964868680s699ms.jpg,815,29487,32096,33191,0.32763672,-0.19482422,1.6162108999999998,3.2130186401880003,-1.910572937063,15.849614622485,430498663.0,-1036459188,-81.19999999999997,1.414,56.27,31801,32361,33448,25.0,-43.658535,58.536587,32733,32347,31321,1.17,0.78,-0.13,3.0,1.0,2.0,3.0
964868680,699,2020-07-28/964868680s699ms.jpg,964868680s699ms.jpg,491,30211,32531,33071,0.115234375,-0.13623047,1.2626953,1.13006318359375,-1.3359645386255,12.382810863745,430498030.0,-1036459352,-81.0,1.382,56.27,31903,32559,32840,12.926829,-6.5853660000000005,52.317074,32738,32378,31321,1.14,0.76,-0.12,3.0,1.0,2.0,3.0
964868680,699,2020-07-28/964868680s699ms.jpg,964868680s699ms.jpg,218,29500,32523,32497,0.119140625,0.14404297,1.6098633,1.16837041015625,1.4125789917504998,15.787365930945,430497679.0,-1036459780,-80.80000000000003,1.232,56.27,32305,32721,32861,3.0487804,-7.865854,27.804878,32745,32387,31311,1.02,0.68,-0.11,3.0,1.0,2.0,3.0
964868680,699,2020-07-28/964868680s699ms.jpg,964868680s699ms.jpg,187,31774,32218,32668,0.2680664,0.060546875,0.49951172,2.6288333615599995,0.59376201171875,4.8985366089380005,430497660.0,-1036459841,-80.80000000000003,1.205,56.27,32486,32852,32895,-4.939024400000001,-9.939024,16.768293,32754,32418,31304,1.0,0.66,-0.11,3.0,1.0,2.0,3.0
964868680,699,2020-07-28/964868680s699ms.jpg,964868680s699ms.jpg,167,26470,32261,33139,0.24707031,-0.1694336,3.0893555,2.4229320555615,-1.6615760134399995,30.296228114075,430497652.0,-1036459883,-80.60000000000002,1.1840000000000002,56.27,32546,32981,33405,-12.804878,-41.036587,13.109756,32746,32388,31312,0.98,0.65,-0.11,3.0,1.0,2.0,3.0
964868680,699,2020-07-28/964868680s699ms.jpg,964868680s699ms.jpg,117,33086,31606,35073,0.56689453,-1.1137695,-0.14111328,5.5593362426245,-10.922347667175,-1.383848547312,430497621.0,-1036459986,-80.60000000000002,1.15,56.27,32184,32301,32783,28.658537,-3.109756,35.182926,32753,32415,31307,0.95,0.63,-0.12,3.0,1.0,2.0,3.0
964868680,699,2020-07-28/964868680s699ms.jpg,964868680s699ms.jpg,97,30567,32513,32375,0.12402344,0.20361328,1.0888672,1.216254467876,1.996764172312,10.67813952688,430497604.0,-1036460023,-80.60000000000002,1.143,56.27,32201,32185,32973,35.73171,-14.695122,34.146343,32747,32386,31310,0.95,0.63,-0.12,3.0,1.0,2.0,3.0
964868680,699,2020-07-28/964868680s699ms.jpg,964868680s699ms.jpg,228,28213,32693,32662,0.036132812,0.06347656,2.2382812000000003,0.3543418407998,0.622492407124,21.95004032998,430497682.0,-1036459761,-80.80000000000003,1.239,56.27,32384,32763,32944,0.4878049,-12.926829,22.987804,32745,32383,31310,1.03,0.68,-0.11,3.0,1.0,2.0,3.0
964868680,699,2020-07-28/964868680s699ms.jpg,964868680s699ms.jpg,501,30070,32817,33308,-0.024414062,-0.25195312,1.331543,-0.2394201611122999,-2.4708160642479995,13.057976160949998,430498054.0,-1036459339,-81.0,1.392,56.27,31857,32691,32663,4.878049,4.207317,55.121952,32739,32378,31320,1.15,0.77,-0.12,3.0,1.0,2.0,3.0
964868680,699,2020-07-28/964868680s699ms.jpg,964868680s699ms.jpg,471,31531,32562,31036,0.100097656,0.8574219000000001,0.61816406,0.9816226782124,8.408436475635,6.062118578999,430497980.0,-1036459386,-81.0,1.36,56.27,32270,32417,32808,21.585365,-4.634146,29.939024,32738,32374,31319,1.13,0.75,-0.11,3.0,1.0,2.0,3.0
964868680,699,2020-07-28/964868680s699ms.jpg,964868680s699ms.jpg,461,33158,32713,32923,0.026367188,-0.063964844,-0.17626953,0.2585737842002,-0.6272808374126,-1.7286135863745,430497954.0,-1036459404,-81.0,1.351,56.27,32352,32527,32806,14.878049,-4.512194999999999,24.939024,32737,32371,31320,1.12,0.75,-0.11,3.0,1.0,2.0,3.0
964868680,699,2020-07-28/964868680s699ms.jpg,964868680s699ms.jpg,451,32409,32813,34423,-0.022460938,-0.7963866999999999,0.18945312,-0.2202665576377,-7.809885631555001,1.857900439248,430497933.0,-1036459424,-81.0,1.346,56.27,32306,32457,33079,19.146341,-21.158537,27.743902,32739,32376,31319,1.11,0.74,-0.11,3.0,1.0,2.0,3.0
964868680,699,2020-07-28/964868680s699ms.jpg,964868680s699ms.jpg,359,29335,32936,31585,-0.08251953,0.58935547,1.6904297,-0.8092401488744999,5.7796028198755005,16.577452417504993,430497774.0,-1036459562,-80.80000000000003,1.256,56.27,32156,32902,32861,-7.987805000000001,-7.865854,36.890244,32754,32416,31301,1.04,0.69,-0.11,3.0,1.0,2.0,3.0
964868680,699,2020-07-28/964868680s699ms.jpg,964868680s699ms.jpg,319,30447,32939,32969,-0.083984375,-0.08642578,1.1474608999999998,-0.82360537109375,-0.8475473754369999,11.252747434985,430497731.0,-1036459614,-80.80000000000003,1.259,56.27,32435,32800,32986,-1.7682927,-15.487804,19.878048,32749,32399,31310,1.04,0.69,-0.11,3.0,1.0,2.0,3.0
964868680,699,2020-07-28/964868680s699ms.jpg,964868680s699ms.jpg,289,30894,32603,33278,0.080078125,-0.23730469,0.9291992,0.7852981445312499,-2.3271640381885,9.11233133468,430497708.0,-1036459661,-80.80000000000003,1.262,56.27,32440,32679,32802,5.609756,-4.268293,19.573172,32746,32387,31313,1.04,0.7,-0.11,3.0,1.0,2.0,3.0
964868698,717,2020-07-28/964868698s717ms.jpg,964868698s717ms.jpg,421,30454,33018,33435,-0.122558594,-0.31396484,1.144043,-1.2018892358501,-3.078943298186,11.219229285949998,430499783.0,-1036424579,-8.800000000000011,0.0,101.91,32389,32943,32250,-10.487804,29.390244,22.682926,32729,32536,31276,0.0,0.0,0.0,3.0,1.0,2.0,3.0
964868698,717,2020-07-28/964868698s717ms.jpg,964868698s717ms.jpg,411,30358,33140,33164,-0.1821289,-0.18164062,1.190918,-1.7860743771849998,-1.7812859861230002,11.678916004699998,430499783.0,-1036424579,-8.800000000000011,0.0,101.91,32395,32906,32203,-8.231708,32.256096,22.317074,32726,32528,31278,0.0,0.0,0.0,3.0,1.0,2.0,3.0
964868698,717,2020-07-28/964868698s717ms.jpg,964868698s717ms.jpg,481,26816,33954,24845,-0.57958984,3.880371,2.9204102,-5.683834704436,38.05344026715,28.63944068783,430499784.0,-1036424577,-8.800000000000011,0.0,101.91,32383,33434,32410,-40.42683,19.634146,23.04878,32734,32523,31276,0.0,0.0,0.0,3.0,1.0,2.0,3.0
964868698,717,2020-07-28/964868698s717ms.jpg,964868698s717ms.jpg,611,28636,33400,33158,-0.30908203,-0.17871094,2.0317383,-3.0310592894995,-1.752555639751,19.924546399695,430499788.0,-1036424572,-8.800000000000011,0.0,101.91,32372,33214,32413,-27.012196000000003,19.451220000000003,23.719513,32750,32521,31278,0.0,0.0,0.0,3.0,1.0,2.0,3.0
964868698,717,2020-07-28/964868698s717ms.jpg,964868698s717ms.jpg,491,29281,32872,27829,-0.05126953,2.4233398,1.7167968999999996,-0.5027823363745,23.76484524967,16.836026319385,430499784.0,-1036424577,-8.800000000000011,0.0,101.91,32417,33268,32386,-30.304878,21.09756,20.975609,32736,32526,31275,0.0,0.0,0.0,3.0,1.0,2.0,3.0
964868698,717,2020-07-28/964868698s717ms.jpg,964868698s717ms.jpg,581,34655,33240,32221,-0.23095703,0.2788085999999999,-0.90722656,-2.2649147582495,2.73417835719,-8.896853344623999,430499788.0,-1036424572,-8.800000000000011,0.0,101.91,32243,32675,31936,5.8536587,48.536587,31.585365000000003,32741,32511,31285,0.0,0.0,0.0,3.0,1.0,2.0,3.0
964868698,717,2020-07-28/964868698s717ms.jpg,964868698s717ms.jpg,551,25434,33430,35769,-0.32373047,-1.4536133,3.5952148,-3.1747114136255004,-14.255076868444998,35.25701321842,430499787.0,-1036424575,-8.800000000000011,0.0,101.91,32228,33287,32285,-31.463415,27.256098,32.5,32737,32507,31283,0.0,0.0,0.0,3.0,1.0,2.0,3.0
964868698,717,2020-07-28/964868698s717ms.jpg,964868698s717ms.jpg,541,29949,33435,30469,-0.32617188,1.1342773000000002,1.390625,-3.1986534670020004,11.123460484045,13.63737265625,430499786.0,-1036424575,-8.800000000000011,0.0,101.91,32270,32709,32452,3.7804878,17.073172,29.939024,32736,32512,31284,0.0,0.0,0.0,3.0,1.0,2.0,3.0
964868698,717,2020-07-28/964868698s717ms.jpg,964868698s717ms.jpg,329,30897,32773,32479,-0.0029296875,0.15283203,0.9277344,-0.028730419921875,1.4987702269995,9.09796655376,430499782.0,-1036424582,-8.800000000000011,0.0,101.91,33038,33561,32566,-48.17073,10.121951,-16.890244,32721,32556,31280,0.0,0.0,0.0,3.0,1.0,2.0,3.0
964868698,717,2020-07-28/964868698s717ms.jpg,964868698s717ms.jpg,34,32187,32993,33700,-0.11035156,-0.44335938,0.29785156,-1.082179125874,-4.347870263877001,2.920926000874,430499789.0,-1036424604,-8.800000000000011,0.0,101.91,32918,32643,32827,7.804877999999999,-5.792683,-9.573171,32721,32581,31283,0.0,0.0,0.0,3.0,1.0,2.0,3.0
964868698,717,2020-07-28/964868698s717ms.jpg,964868698s717ms.jpg,44,30201,33325,31670,-0.27246094,0.54785156,1.2675781000000002,-2.6719290772510003,5.372588500874,12.430694774364998,430499789.0,-1036424602,-8.800000000000011,0.0,101.91,32950,32587,32862,11.219512,-7.9268293,-11.52439,32719,32573,31283,0.0,0.0,0.0,3.0,1.0,2.0,3.0
964868698,717,2020-07-28/964868698s717ms.jpg,964868698s717ms.jpg,215,28829,32970,31602,-0.099121094,0.5810546999999999,1.9375,-0.9720458764751,5.698200073754999,19.000384375,430499788.0,-1036424589,-8.800000000000011,0.0,101.91,33037,32860,32672,-5.4268293,3.6585367,-16.829268,32716,32549,31287,0.0,0.0,0.0,3.0,1.0,2.0,3.0
964868698,717,2020-07-28/964868698s717ms.jpg,964868698s717ms.jpg,195,30517,32470,33220,0.14501953,-0.20898438,1.1132812,1.4221557738745,-2.049436670127,10.917559079980002,430499788.0,-1036424591,-8.800000000000011,0.0,101.91,33070,32713,32585,3.5365853,8.963414,-18.841463,32715,32561,31288,0.0,0.0,0.0,3.0,1.0,2.0,3.0
964868628,714,2020-07-28/964868628s714ms.jpg,964868628s714ms.jpg,699,31334,32445,34356,0.15722656,-0.7636719,0.71435547,1.541865844624,-7.489063038134999,7.005434069875499,430423754.0,-1036544033,-66.19999999999999,1.486,32.61,32925,32477,32464,17.926828,16.341463,-10.0,32685,32559,31342,0.8,1.25,-0.3,1.0,0.0,0.0,0.0
964868628,714,2020-07-28/964868628s714ms.jpg,964868628s714ms.jpg,599,31178,33115,33775,-0.16992188,-0.47998047,0.79052734,-1.666364404502,-4.7070004761255,7.752424938811001,430423562.0,-1036544149,-65.80000000000001,1.5830000000000002,31.18,33289,32652,32556,7.256098,10.731708,-32.19512,32676,32536,31348,0.81,1.35,-0.31,1.0,0.0,0.0,0.0
964868628,714,2020-07-28/964868628s714ms.jpg,964868628s714ms.jpg,609,31767,32867,33524,-0.048828125,-0.35742188,0.5029297,-0.47884033203125,-3.505111279502,4.932055542505,430423601.0,-1036544124,-65.80000000000001,1.586,30.98,33234,32625,32452,8.902439,17.073172,-28.841463,32675,32528,31348,0.81,1.35,-0.31,1.0,0.0,0.0,0.0
964868628,714,2020-07-28/964868628s714ms.jpg,964868628s714ms.jpg,760,30671,33272,33692,-0.24658203,-0.43945312,1.0380859,-2.4181436644995,-4.309562939248,10.180145091235,430423831.0,-1036543971,-66.39999999999998,1.374,34.87,32614,32565,32442,12.560976,17.682926000000002,8.963414,32679,32533,31351,0.78,1.12,-0.3,1.0,0.0,0.0,0.0
964868628,714,2020-07-28/964868628s714ms.jpg,964868628s714ms.jpg,529,30228,32564,33552,0.099121094,-0.37109375,1.2543945,0.9720458764751,-3.6391865234375,12.301407823425,430423296.0,-1036544331,-65.60000000000002,1.527,32.71,33260,32641,32561,7.9268293,10.426829,-30.426828000000004,32678,32542,31349,0.82,1.28,-0.31,1.0,0.0,0.0,0.0
964868628,714,2020-07-28/964868628s714ms.jpg,964868628s714ms.jpg,978,31571,32705,33740,0.030273438,-0.46289062,0.5986328000000001,0.2968810107627,-4.539406298623,5.870582348119999,430424211.0,-1036543554,-67.0,1.294,52.28,32761,32664,32785,6.52439,-3.2317073,0.0,32675,32511,31361,1.02,0.79,-0.3,1.0,0.0,0.0,0.0
964868628,714,2020-07-28/964868628s714ms.jpg,964868628s714ms.jpg,958,31452,32557,34165,0.10253906,-0.67041016,0.6567383000000001,1.005564672749,-6.574477795564,6.440402649695,430424188.0,-1036543578,-67.0,1.283,52.49,32679,32759,32781,0.73170733,-2.987805,5.0,32680,32525,31355,1.01,0.78,-0.3,1.0,0.0,0.0,0.0
964868628,714,2020-07-28/964868628s714ms.jpg,964868628s714ms.jpg,837,30159,32975,32822,-0.1015625,-0.0146484375,1.2880858999999998,-0.995987890625,-0.143652099609375,12.631807591235,430424084.0,-1036543764,-66.60000000000002,1.354,37.82,32550,32597,32616,10.609756,7.0731707,12.865853,32675,32524,31358,0.83,1.07,-0.3,1.0,0.0,0.0,0.0
964868628,714,2020-07-28/964868628s714ms.jpg,964868628s714ms.jpg,827,30188,32763,32795,0.001953125,-0.0014648438,1.2739258,0.01915361328125,-0.01436521045127,12.492944446569998,430424046.0,-1036543798,-66.60000000000002,1.35,36.81,32611,32562,32619,12.743902,6.890244,9.146341,32679,32538,31353,0.8,1.08,-0.3,1.0,0.0,0.0,0.0
964868628,714,2020-07-28/964868628s714ms.jpg,964868628s714ms.jpg,817,30254,32684,32912,0.040527344,-0.05859375,1.2416992,0.3974374780376,-0.5746083984375,12.17690945968,430424007.0,-1036543830,-66.60000000000002,1.345,36.33,32670,32514,32602,15.670732,7.9268293,5.5487804,32683,32547,31346,0.79,1.08,-0.3,1.0,0.0,0.0,0.0
964868628,714,2020-07-28/964868628s714ms.jpg,964868628s714ms.jpg,509,31359,32992,33044,-0.10986328,-0.123046875,0.70214844,-1.077390734812,-1.20667763671875,6.885723999125999,430423200.0,-1036544396,-65.60000000000002,1.509,33.75,33267,32514,32503,15.670732,13.963414000000002,-30.853659000000004,32682,32550,31343,0.83,1.25,-0.31,1.0,0.0,0.0,0.0
964868628,714,2020-07-28/964868628s714ms.jpg,964868628s714ms.jpg,218,31343,33213,33480,-0.21777344,-0.3359375,0.70996094,-2.135627905376,-3.294421484375,6.962338452250999,430422353.0,-1036544882,-64.60000000000002,1.403,38.41,33452,32524,32908,15.060976,-10.731708,-42.134148,32679,32503,31353,0.87,1.09,-0.31,1.0,0.0,0.0,0.0
964868628,714,2020-07-28/964868628s714ms.jpg,964868628s714ms.jpg,188,30193,33333,32986,-0.2763672,-0.09472656,1.2714843999999998,-2.71023640188,-0.928950219624,12.46900249126,430422256.0,-1036544944,-64.39999999999998,1.384,41.7,33512,32615,33037,9.512196,-18.59756,-45.792683,32690,32528,31351,0.92,1.03,-0.31,1.0,0.0,0.0,0.0
964868628,714,2020-07-28/964868628s714ms.jpg,964868628s714ms.jpg,145,31654,33075,32965,-0.15039062,-0.084472656,0.55810547,-1.474828173623,-0.8283937719623999,5.4731450073755,430422131.0,-1036545032,-64.39999999999998,1.356,44.4,33371,32535,33004,14.390244,-16.585365,-37.19512,32684,32494,31359,0.94,0.96,-0.32,1.0,0.0,0.0,0.0
964868628,714,2020-07-28/964868628s714ms.jpg,964868628s714ms.jpg,105,31145,32427,33160,0.16601562,-0.1796875,0.8066406,1.628057079873,-1.762132421875,7.910442039989999,430422016.0,-1036545118,-64.19999999999999,1.3769999999999998,45.44,33386,32546,33094,13.719512,-22.073172,-38.109756,32694,32514,31354,0.98,0.96,-0.32,1.0,0.0,0.0,0.0
964868628,714,2020-07-28/964868628s714ms.jpg,964868628s714ms.jpg,95,31490,32505,33070,0.12792969,-0.13574219,0.6381836,1.2545616944385,-1.3311761475635,6.25844320094,430422003.0,-1036545125,-64.0,1.3969999999999998,45.69,33372,32518,33065,15.426829,-20.304878,-37.256096,32692,32499,31357,0.99,0.97,-0.32,1.0,0.0,0.0,0.0
964868628,714,2020-07-28/964868628s714ms.jpg,964868628s714ms.jpg,499,31712,33063,33369,-0.14453125,-0.28173828,0.52978516,-1.4173673828125,-2.762908703562,5.195417639314,430423154.0,-1036544428,-65.39999999999998,1.504,33.66,33254,32498,32503,16.646341,13.963414000000002,-30.060976,32680,32541,31346,0.83,1.25,-0.31,1.0,0.0,0.0,0.0
964868628,714,2020-07-28/964868628s714ms.jpg,964868628s714ms.jpg,406,30766,33551,32729,-0.3828125,0.030761719,0.9916992,-3.754108203125,0.30166941163135,9.72524695968,430422784.0,-1036544657,-65.19999999999999,1.452,31.99,33135,32712,32602,3.597561,7.9268293,-22.804878,32678,32525,31352,0.76,1.23,-0.31,1.0,0.0,0.0,0.0
964868628,714,2020-07-28/964868628s714ms.jpg,964868628s714ms.jpg,339,31689,33712,32775,-0.46142578,0.008300781,0.5410156,-4.525041125437,0.0814028539936499,5.30555063374,430422617.0,-1036544684,-65.0,1.467,40.64,33067,32665,32598,6.4634147,8.170732000000001,-18.658537,32678,32519,31354,0.95,1.11,-0.3,1.0,0.0,0.0,0.0
964868665,718,2020-07-28/964868665s718ms.jpg,964868665s718ms.jpg,687,30957,32897,32960,-0.06347656,-0.08203125,0.8984375,-0.622492407124,-0.8044517578125,8.810662109374997,430491135.0,-1036484843,-144.8,5.859,40.12,33037,32689,32559,5.0,10.54878,-16.829268,32690,32609,31230,3.77,4.48,-0.32,2.0,1.0,1.0,2.0
964868665,718,2020-07-28/964868665s718ms.jpg,964868665s718ms.jpg,717,29763,33261,32554,-0.24121094,0.11621094,1.4814453,-2.365471264751,1.139640014751,14.528015551245,430491140.0,-1036484740,-145.0,5.729,39.94,33095,32872,32582,-6.1585364,9.146341,-20.365854,32697,32625,31221,3.67,4.39,-0.32,2.0,1.0,1.0,2.0
964868665,718,2020-07-28/964868665s718ms.jpg,964868665s718ms.jpg,655,31888,33254,33524,-0.23779297,-0.35742188,0.44384766,-2.3319524292505,-3.505111279502,4.352658654939,430491100.0,-1036484976,-144.8,5.893,39.44,33010,32594,32573,10.792683,9.695122,-15.182927,32695,32628,31225,3.74,4.55,-0.32,2.0,1.0,1.0,2.0
964868665,718,2020-07-28/964868665s718ms.jpg,964868665s718ms.jpg,625,29994,32795,33187,-0.013671875,-0.1928711,1.3686523000000002,-0.1340752929687499,-1.891419372815,13.421894077795,430491008.0,-1036485133,-144.8,5.912000000000001,38.7,33076,32660,32611,6.768292999999999,7.378049000000001,-19.207317,32692,32624,31229,3.69,4.61,-0.33,2.0,1.0,1.0,2.0
964868665,718,2020-07-28/964868665s718ms.jpg,964868665s718ms.jpg,553,28524,33102,32899,-0.16357422,-0.052246094,2.0864258,-1.604115124563,-0.5123591577251,20.46084757157,430490788.0,-1036485523,-144.60000000000005,5.979,37.24,33240,32858,32707,-5.304878,1.5243902,-29.207317,32686,32613,31233,3.61,4.75,-0.34,2.0,1.0,1.0,2.0
964868665,718,2020-07-28/964868665s718ms.jpg,964868665s718ms.jpg,635,30570,32889,33257,-0.059570312,-0.22705078,1.0874023000000002,-0.5841852001748001,-2.226607531687,10.663773765294998,430491037.0,-1036485084,-144.8,5.905,38.88,33018,32650,32556,7.378049000000001,10.731708,-15.670732,32698,32645,31224,3.7,4.59,-0.33,2.0,1.0,1.0,2.0
964868665,718,2020-07-28/964868665s718ms.jpg,964868665s718ms.jpg,968,30842,32919,33028,-0.07421875,-0.115234375,0.95458984,-0.7278373046875,-1.13006318359375,9.361328454436,430491491.0,-1036484004,-146.0,5.075,17.24,32806,32639,32518,8.04878,13.04878,-2.7439024,32707,32629,31220,1.5,4.84,-0.3,2.0,1.0,1.0,2.0
964868665,718,2020-07-28/964868665s718ms.jpg,964868665s718ms.jpg,867,30679,32887,33139,-0.05859375,-0.1694336,1.0341797,-0.5746083984375,-1.6615760134399995,10.141838355005,430491104.0,-1036484347,-145.8,5.382999999999999,26.43,33035,32530,32589,14.695122,8.719512,-16.707317,32701,32620,31220,2.39,4.82,-0.3,2.0,1.0,1.0,2.0
964868665,718,2020-07-28/964868665s718ms.jpg,964868665s718ms.jpg,837,30435,33157,33677,-0.19042969,-0.4321289000000001,1.1533203,-1.8674773194385,-4.237736877184998,11.310208519995,430491117.0,-1036484377,-145.60000000000005,5.354,31.57,33155,32603,32575,10.243902,9.573171,-24.024391,32704,32634,31216,2.8,4.56,-0.32,2.0,1.0,1.0,2.0
964868665,718,2020-07-28/964868665s718ms.jpg,964868665s718ms.jpg,797,30203,32564,32026,0.099121094,0.37402344,1.2666016000000002,0.9720458764751,3.667916967876,12.421118580639998,430490887.0,-1036484605,-145.60000000000005,5.323,35.44,33022,32618,32689,9.329268,2.621951,-15.914634,32695,32614,31223,3.08,4.33,-0.32,2.0,1.0,1.0,2.0
964868665,718,2020-07-28/964868665s718ms.jpg,964868665s718ms.jpg,201,34700,32604,32020,0.079589844,0.37695312,-0.9291992,0.7805097436626001,3.696647314248,-9.11233133468,430489083.0,-1036487493,-143.8,5.767,6.57,32745,32591,33088,10.97561,-21.707317,0.9756098,32713,32574,31269,0.65,5.72,-0.3,2.0,1.0,1.0,2.0
964868665,718,2020-07-28/964868665s718ms.jpg,964868665s718ms.jpg,171,33814,32466,35419,0.14697266,-1.2827148000000002,-0.49658203,1.441309436189,-12.579135093419998,-4.8698061644995,430488897.0,-1036487617,-143.8,5.7860000000000005,5.74,32566,32554,32893,13.231708,-9.817073,11.890244,32716,32562,31270,0.57,5.75,-0.3,2.0,1.0,1.0,2.0
964868665,718,2020-07-28/964868665s718ms.jpg,964868665s718ms.jpg,131,29037,32399,32490,0.1796875,0.14746094,1.8359375,1.762132421875,1.446097827251,18.004396484375,430488630.0,-1036487755,-143.8,5.678999999999999,7.48,32180,32808,32694,-2.2560976000000004,2.317073,35.426829999999995,32726,32590,31262,0.73,5.63,-0.31,2.0,1.0,1.0,2.0
964868665,718,2020-07-28/964868665s718ms.jpg,964868665s718ms.jpg,121,30249,32365,33402,0.19628906,-0.29785156,1.2441406000000002,1.924938110249,-2.920926000874,12.200851414989998,430488554.0,-1036487798,-143.8,5.653,8.43,32103,32857,32681,-5.243901999999999,3.109756,40.121952,32719,32561,31265,0.82,5.59,-0.31,2.0,1.0,1.0,2.0
964868665,718,2020-07-28/964868665s718ms.jpg,964868665s718ms.jpg,51,30639,32944,32441,-0.08642578,0.17138672,1.0537108999999998,-0.8475473754369999,1.6807295776879998,10.333373997485,430488138.0,-1036488041,-143.8,5.499,10.68,31730,32912,32314,-8.597561,25.487804,62.865852,32715,32567,31260,1.01,5.4,-0.31,2.0,1.0,1.0,2.0
964868665,718,2020-07-28/964868665s718ms.jpg,964868665s718ms.jpg,231,26492,32612,35073,0.075683594,-1.1137695,3.0786133,0.7422025171000999,-10.922347667175,30.190883118445,430489235.0,-1036487363,-143.8,5.684,7.85,32941,33331,33486,-34.146343,-45.97561,-10.97561,32716,32598,31261,0.77,5.63,-0.31,2.0,1.0,1.0,2.0
964868665,718,2020-07-28/964868665s718ms.jpg,964868665s718ms.jpg,452,33571,32711,33185,0.02734375,-0.19189453,-0.3779297,0.2681505859375,-1.8818424926245,-3.706224292505,430490421.0,-1036486166,-144.2,5.839,29.79,33643,32559,32922,12.926829,-11.585366,-53.780487,32686,32605,31244,2.9,5.06,-0.33,2.0,1.0,1.0,2.0
964868665,718,2020-07-28/964868665s718ms.jpg,964868665s718ms.jpg,432,30328,32788,33449,-0.010253906,-0.32080078,1.2055664,-0.1005564672748999,-3.145980969187,11.822567736559998,430490241.0,-1036486390,-144.2,5.558,25.77,33689,32627,33040,8.780488,-18.780487,-56.585365,32689,32617,31246,2.41,5.0,-0.33,2.0,1.0,1.0,2.0
964868665,718,2020-07-28/964868665s718ms.jpg,964868665s718ms.jpg,422,29467,32669,33144,0.047851562,-0.171875,1.6259766000000002,0.4692635204873,-1.68551796875,15.945383424389998,430490186.0,-1036486444,-144.2,5.553,25.05,33743,32672,33105,6.0365853,-22.743902,-59.878048,32694,32629,31241,2.35,5.03,-0.33,2.0,1.0,1.0,2.0
964868665,718,2020-07-28/964868665s718ms.jpg,964868665s718ms.jpg,272,31252,32668,33268,0.048339844,-0.23242188,0.75439453,0.4740519311626,-2.279280029502,7.398083117624498,430489447.0,-1036487185,-143.8,5.565,10.27,33147,32753,33217,1.097561,-29.573172,-23.536585,32714,32600,31259,0.99,5.47,-0.31,2.0,1.0,1.0,2.0
964868578,697,2020-07-28/964868578s697ms.jpg,964868578s697ms.jpg,680,30892,32519,33629,0.12109375,-0.4086914,0.9301758,1.1875240234375,-4.00789351781,9.12190850907,430432830.0,-1036561118,23.600000000000023,2.799,276.11,33114,32658,32886,6.890244,-9.390244,-21.524391,32749,32526,31198,-2.78,0.29,-0.08,1.0,0.0,0.0,0.0
964868578,697,2020-07-28/964868578s697ms.jpg,964868578s697ms.jpg,599,30199,32664,32650,0.05029297,0.06933594,1.2685547,0.4932055542505,0.679953296001,12.440271948755,430433006.0,-1036560656,23.79999999999995,2.79,278.39,32596,32742,32774,1.7682927,-2.5609756,10.060976,32752,32538,31194,-2.76,0.4,-0.08,1.0,0.0,0.0,0.0
964868578,697,2020-07-28/964868578s697ms.jpg,964868578s697ms.jpg,589,30275,32861,32931,-0.045898438,-0.067871094,1.2314453,-0.4501099170127,-0.6655880639751001,12.076353051245,430433028.0,-1036560603,23.79999999999995,2.79,278.89,32542,32745,32747,1.5853659,-0.91463417,13.353659,32756,32556,31191,-2.75,0.43,-0.08,1.0,0.0,0.0,0.0
964868578,697,2020-07-28/964868578s697ms.jpg,964868578s697ms.jpg,865,30557,32635,33345,0.064453125,-0.27001953,1.09375,0.63206923828125,-2.6479870238745,10.7260234375,430432036.0,-1036562059,23.0,2.074,254.69,33348,32717,32754,3.292683,-1.3414634,-35.792683000000004,32752,32551,31179,-2.0,-0.54,-0.1,1.0,0.0,0.0,0.0
964868578,697,2020-07-28/964868578s697ms.jpg,964868578s697ms.jpg,975,30732,32847,33113,-0.0390625,-0.15673828,1.0083008,-0.383072265625,-1.5370774535620002,9.88805304032,430431631.0,-1036562575,22.79999999999995,1.915,253.17,32748,32677,32655,5.731707,4.6951220000000005,0.79268295,32750,32539,31181,-1.83,-0.55,-0.11,1.0,0.0,0.0,0.0
964868578,697,2020-07-28/964868578s697ms.jpg,964868578s697ms.jpg,965,30550,32942,33204,-0.08544922,-0.20117188,1.097168,-0.8379705933130001,-1.972822217002,10.7595425672,430431655.0,-1036562531,22.79999999999995,1.92,252.48,32752,32719,32639,3.1707318,5.6707315000000005,0.5487805,32750,32539,31180,-1.83,-0.57,-0.11,1.0,0.0,0.0,0.0
964868578,697,2020-07-28/964868578s697ms.jpg,964868578s697ms.jpg,875,31326,32742,33816,0.012207031,-0.5,0.7182616999999999,0.1197100805561499,-4.903325,7.043741100305001,430431995.0,-1036562101,23.0,2.052,253.72,33369,32642,32800,7.865854,-4.1463413000000005,-37.073170000000005,32748,32538,31185,-1.96,-0.57,-0.1,1.0,0.0,0.0,0.0
964868578,697,2020-07-28/964868578s697ms.jpg,964868578s697ms.jpg,781,30982,33193,33203,-0.20800781,-0.2006836,0.88623047,-2.0398597899365,-1.96803382594,8.690952038625499,430432508.0,-1036561568,23.399999999999977,2.5,265.43,33376,32745,32868,1.5853659,-8.292683,-37.5,32747,32530,31194,-2.49,-0.19,-0.09,1.0,0.0,0.0,0.0
964868578,697,2020-07-28/964868578s697ms.jpg,964868578s697ms.jpg,478,31534,33223,33511,-0.22265625,-0.35107422,0.6166991999999999,-2.1835119140625,-3.442861999563,6.047753209680001,430433220.0,-1036560073,24.0,2.709,278.59,32222,32722,32719,2.987805,0.79268295,32.865852000000004,32754,32549,31189,-2.67,0.4,-0.07,1.0,0.0,0.0,0.0
964868578,697,2020-07-28/964868578s697ms.jpg,964868578s697ms.jpg,168,30622,33171,32864,-0.19726562,-0.03515625,1.0620117,-1.934514892373,-0.3447650390625,10.414777037805,430434172.0,-1036558700,24.600000000000023,1.4469999999999998,284.89,32836,32707,32781,3.902439,-2.987805,-4.5731707,32750,32535,31179,-1.39,0.37,-0.05,1.0,0.0,0.0,0.0
964868578,697,2020-07-28/964868578s697ms.jpg,964868578s697ms.jpg,148,30855,32899,33055,-0.064453125,-0.12841797,0.9482421999999998,-0.63206923828125,-1.2593500855004998,9.29907937063,430434244.0,-1036558616,24.600000000000023,1.473,284.24,32929,32646,32821,7.621950999999999,-5.4268293,-10.243902,32754,32551,31178,-1.42,0.36,-0.04,1.0,0.0,0.0,0.0
964868578,697,2020-07-28/964868578s697ms.jpg,964868578s697ms.jpg,98,30461,32582,33274,0.09033203,-0.23535156,1.140625,0.8858546019994998,-2.308010375874,11.18571015625,430434458.0,-1036558454,24.79999999999995,1.536,285.04,33248,32667,32896,6.3414636,-10.0,-29.695122,32756,32559,31174,-1.48,0.39,-0.04,1.0,0.0,0.0,0.0
964868578,697,2020-07-28/964868578s697ms.jpg,964868578s697ms.jpg,5,30268,32647,32953,0.05859375,-0.07861328,1.2348633,0.5746083984375,-0.770932922312,12.109872180945,430434944.0,-1036558160,25.0,1.371,292.28,33384,32732,32875,2.3780490000000003,-8.719512,-37.987804,32751,32539,31184,-1.26,0.51,-0.04,1.0,0.0,0.0,0.0
964868578,697,2020-07-28/964868578s697ms.jpg,964868578s697ms.jpg,438,30554,33372,33314,-0.29541016,-0.2548828,1.0952148000000002,-2.8969840455639995,-2.4995464106200003,10.740388218419998,430433346.0,-1036559861,24.0,2.256,280.99,32170,32789,32733,-1.097561,-0.06097561,36.036587,32751,32536,31187,-2.21,0.43,-0.07,1.0,0.0,0.0,0.0
964868578,697,2020-07-28/964868578s697ms.jpg,964868578s697ms.jpg,428,30500,33219,33109,-0.22070312,-0.15478516,1.121582,-2.164358251748,-1.517923889314,10.9989621203,430433381.0,-1036559824,24.0,2.23,281.77,32183,32779,32696,-0.4878049,2.195122,35.243904,32756,32554,31182,-2.18,0.45,-0.07,1.0,0.0,0.0,0.0
964868578,697,2020-07-28/964868578s697ms.jpg,964868578s697ms.jpg,408,30936,32998,33299,-0.11279297,-0.2475586,0.9086914,-1.1061211792505,-2.42772054469,8.911218517810001,430433436.0,-1036559755,24.20000000000005,2.199,282.83,32247,32751,32696,1.2195122,2.195122,31.341463,32752,32543,31185,-2.14,0.48,-0.07,1.0,0.0,0.0,0.0
964868578,697,2020-07-28/964868578s697ms.jpg,964868578s697ms.jpg,328,30963,33142,33397,-0.18310547,-0.29541016,0.8955078000000002,-1.7956512573755,-2.8969840455639995,8.78193156687,430433682.0,-1036559366,24.20000000000005,2.19,285.45,32369,32833,32687,-3.7804878,2.7439024,23.90244,32746,32521,31186,-2.11,0.58,-0.06,1.0,0.0,0.0,0.0
964868578,697,2020-07-28/964868578s697ms.jpg,964868578s697ms.jpg,318,31041,33113,33209,-0.16894531,-0.20361328,0.8574219000000001,-1.6567875243114998,-1.996764172312,8.408436475635,430433715.0,-1036559320,24.20000000000005,2.191,285.56,32390,32813,32718,-2.5609756,0.85365856,22.621952,32747,32525,31187,-2.11,0.58,-0.06,1.0,0.0,0.0,0.0
964868578,697,2020-07-28/964868578s697ms.jpg,964868578s697ms.jpg,298,30460,32801,33354,-0.016601562,-0.27441406,1.1411133,-0.1628057079873,-2.6910826414990003,11.190498743445,430433784.0,-1036559234,24.399999999999977,2.184,285.85,32474,32853,32727,-5.0,0.30487806,17.5,32752,32542,31179,-2.1,0.59,-0.06,1.0,0.0,0.0,0.0
964868578,697,2020-07-28/964868578s697ms.jpg,964868578s697ms.jpg,278,30780,33002,32840,-0.114746094,-0.0234375,0.9848633,-1.1252747827251002,-0.229843359375,9.658209680945,430433855.0,-1036559149,24.399999999999977,2.066,286.02,32566,32793,32701,-1.3414634,1.8902439,11.890244,32752,32545,31179,-1.98,0.57,-0.06,1.0,0.0,0.0,0.0
964868577,730,2020-07-28/964868577s730ms.jpg,964868577s730ms.jpg,682,30553,33063,32933,-0.14453125,-0.068847656,1.0957031000000002,-1.4173673828125,-0.6751648657123999,10.745176805615,430435728.0,-1036557098,25.600000000000023,1.04,307.2,32337,32796,32848,-1.5243902,-7.0731707,25.853659,32761,32530,31189,-0.82,0.62,-0.04,1.0,0.0,0.0,0.0
964868577,730,2020-07-28/964868577s730ms.jpg,964868577s730ms.jpg,733,30445,32743,33035,0.01171875,-0.118652344,1.1484375,0.1149216796875,-1.1635820092876,11.262324609375,430435748.0,-1036557182,25.600000000000023,1.052,306.35,32504,32816,32875,-2.7439024,-8.719512,15.670732,32761,32540,31188,-0.84,0.62,-0.04,1.0,0.0,0.0,0.0
964868577,730,2020-07-28/964868577s730ms.jpg,964868577s730ms.jpg,622,30836,33007,33266,-0.1171875,-0.23144531,0.95751953,-1.149216796875,-2.2697031493115,9.3900588988745,430435695.0,-1036556984,25.600000000000023,0.998,308.43,32303,32802,32888,-1.8902439,-9.512196,27.926828000000004,32761,32525,31190,-0.78,0.62,-0.04,1.0,0.0,0.0,0.0
964868577,730,2020-07-28/964868577s730ms.jpg,964868577s730ms.jpg,612,30736,33059,33238,-0.14257812,-0.21777344,1.0063476999999998,-1.398213720498,-2.135627905376,9.868899672205,430435686.0,-1036556963,25.600000000000023,0.989,308.58,32304,32781,32894,-0.6097561,-9.878049,27.865854,32762,32530,31190,-0.77,0.61,-0.04,1.0,0.0,0.0,0.0
964868577,730,2020-07-28/964868577s730ms.jpg,964868577s730ms.jpg,592,31243,33194,33419,-0.2084961,-0.30615234,0.75878906,-2.044648279065,-3.002328845061,7.441178735248999,430435675.0,-1036556923,25.600000000000023,0.97,309.1,32307,32732,32926,2.3780490000000003,-11.829268,27.682926,32758,32506,31193,-0.75,0.61,-0.04,1.0,0.0,0.0,0.0
964868577,730,2020-07-28/964868577s730ms.jpg,964868577s730ms.jpg,552,30899,32893,33712,-0.061523438,-0.44921875,0.9267578000000002,-0.6033388232626999,-4.405331054687498,9.08838937937,430435647.0,-1036556837,25.600000000000023,0.928,310.21,32192,32824,32863,-3.2317073,-7.987805000000001,34.69512,32756,32495,31193,-0.7,0.59,-0.04,1.0,0.0,0.0,0.0
964868577,730,2020-07-28/964868577s730ms.jpg,964868577s730ms.jpg,542,30764,32752,33368,0.0073242188,-0.28125,0.9926758,0.07182605029502,-2.7581203125,9.73482413407,430435641.0,-1036556817,25.600000000000023,0.915,310.56,32191,32815,32899,-2.682927,-10.182927,34.756096,32759,32503,31190,-0.69,0.59,-0.04,1.0,0.0,0.0,0.0
964868577,730,2020-07-28/964868577s730ms.jpg,964868577s730ms.jpg,512,31162,32902,33767,-0.06591797,-0.47607422,0.79833984,-0.6464344605005,-4.668693249563,7.829039391936001,430435610.0,-1036556763,25.600000000000023,0.868,310.86,32136,32827,32809,-3.4146342000000005,-4.6951220000000005,38.109756,32766,32526,31183,-0.65,0.56,-0.04,1.0,0.0,0.0,0.0
964868577,730,2020-07-28/964868577s730ms.jpg,964868577s730ms.jpg,943,30749,32880,33271,-0.05517578,-0.23388672,1.0,-0.5410895629370001,-2.293645202688,9.80665,430435218.0,-1036558011,25.0,1.255,297.48,33404,32722,32904,2.987805,-10.487804,-39.207317,32755,32544,31186,-1.11,0.57,-0.04,1.0,0.0,0.0,0.0
964868577,730,2020-07-28/964868577s730ms.jpg,964868577s730ms.jpg,923,30439,32436,32711,0.1616211,0.03955078,1.1513672,1.5849615603149998,0.387860656687,11.291055151879997,430435502.0,-1036557935,25.20000000000005,1.258,301.21,33399,32714,32983,3.4756098,-15.304878,-38.902440000000006,32748,32517,31193,-1.07,0.65,-0.04,1.0,0.0,0.0,0.0
964868577,730,2020-07-28/964868577s730ms.jpg,964868577s730ms.jpg,863,30808,32683,32982,0.041015625,-0.09277344,0.9711914,0.40222587890625,-0.909796655376,9.52413414281,430436099.0,-1036557724,25.399999999999977,1.25,308.96,33100,32778,32967,-0.42682928,-14.329268,-20.670732,32751,32514,31195,-0.97,0.78,-0.04,1.0,0.0,0.0,0.0
964868577,730,2020-07-28/964868577s730ms.jpg,964868577s730ms.jpg,823,30650,32553,33221,0.10449219,-0.20947266,1.0483398000000002,1.0247183350635,-2.054225061189,10.280701499669998,430435806.0,-1036557366,25.399999999999977,1.12,305.41,32847,32819,32971,-2.9268293,-14.573171,-5.243901999999999,32750,32508,31199,-0.91,0.64,-0.04,1.0,0.0,0.0,0.0
964868577,730,2020-07-28/964868577s730ms.jpg,964868577s730ms.jpg,211,30607,32989,33253,-0.10839844,-0.22509766,1.0693358999999998,-1.0630255616259998,-2.207453967439,10.486602903735,430435305.0,-1036556466,25.79999999999995,0.0,146.73,32572,32792,32519,-1.2804878,12.987804,11.52439,32754,32508,31181,-0.33,0.15,-0.03,1.0,0.0,0.0,0.0
964868577,730,2020-07-28/964868577s730ms.jpg,964868577s730ms.jpg,171,30536,32762,32955,0.0024414061999999,-0.079589844,1.1040039,0.0239420161112299,-0.7805097436626001,10.826579845935,430435258.0,-1036556392,25.79999999999995,0.0,146.73,32840,32789,32600,-1.097561,8.04878,-4.8170733,32757,32515,31172,0.11,-0.25,-0.03,1.0,0.0,0.0,0.0
964868577,730,2020-07-28/964868577s730ms.jpg,964868577s730ms.jpg,121,30796,32860,33318,-0.0454101559999999,-0.25683594,0.9770508,-0.4453215063374,-2.5187001710009995,9.58159522782,430435226.0,-1036556350,25.79999999999995,0.0,146.73,33062,32731,32680,2.4390244,3.1707318,-18.353659,32762,32540,31168,0.09,-0.21,-0.04,1.0,0.0,0.0,0.0
964868577,730,2020-07-28/964868577s730ms.jpg,964868577s730ms.jpg,111,30362,32854,32947,-0.04248047,-0.075683594,1.1889648000000002,-0.4165911011255,-0.7422025171000999,11.65976165592,430435221.0,-1036556345,25.79999999999995,0.0,146.73,33105,32738,32695,2.012195,2.2560976000000004,-20.975609,32761,32538,31170,0.08,-0.2,-0.04,1.0,0.0,0.0,0.0
964868577,730,2020-07-28/964868577s730ms.jpg,964868577s730ms.jpg,471,30672,32596,33174,0.083496094,-0.18652344,1.0375976999999998,0.8188169702250999,-1.829170092876,10.175357484705,430435567.0,-1036556682,25.600000000000023,0.82,311.64,32119,32883,32782,-6.8292685,-3.0487804,39.146343,32760,32501,31186,-0.61,0.54,-0.04,1.0,0.0,0.0,0.0
964868577,730,2020-07-28/964868577s730ms.jpg,964868577s730ms.jpg,421,31140,32522,33062,0.119628906,-0.13183594,0.80908203,1.1731588110248998,-1.292868921001,7.9343842894995,430435533.0,-1036556658,25.600000000000023,0.779,309.85,32207,32801,32716,-1.8292683,0.9756098,33.780487,32760,32499,31186,-0.59,0.49,-0.04,1.0,0.0,0.0,0.0
964868577,730,2020-07-28/964868577s730ms.jpg,964868577s730ms.jpg,401,30717,32827,33213,-0.029296875,-0.2055663999999999,1.015625,-0.28730419921875,-2.01591773656,9.95987890625,430435515.0,-1036556657,25.600000000000023,0.745,308.5,32189,32875,32649,-6.3414636,5.060975599999999,34.878048,32759,32496,31186,-0.58,0.46,-0.03,1.0,0.0,0.0,0.0
964868577,730,2020-07-28/964868577s730ms.jpg,964868577s730ms.jpg,281,30639,32889,33210,-0.059570312,-0.20410156,1.0537108999999998,-0.5841852001748001,-2.001552563374,10.333373997485,430435353.0,-1036556508,25.79999999999995,0.475,299.99,32193,32783,32546,-0.73170733,11.341463,34.634148,32764,32528,31175,-0.41,0.23,-0.03,1.0,0.0,0.0,0.0
964868624,710,2020-07-28/964868624s710ms.jpg,964868624s710ms.jpg,647,29731,33053,33200,-0.13964844,-0.19921875,1.4970703,-1.3694833741260002,-1.9536685546875,14.681244457495,430420879.0,-1036541754,-48.19999999999999,1.625,222.83,32292,32774,32757,-0.18292683,-1.5243902,28.59756,32723,32434,31337,-1.1,-1.19,-0.21,1.0,0.0,0.0,1.0
964868624,710,2020-07-28/964868624s710ms.jpg,964868624s710ms.jpg,670,30097,32397,32267,0.18066406,0.25634766,1.3183593999999998,1.7717092039989997,2.513911779939,12.92868921001,430420837.0,-1036541778,-48.19999999999999,1.651,218.4,32332,32581,32955,11.585366,-13.597561,26.158537,32732,32471,31330,-1.02,-1.29,-0.21,1.0,0.0,0.0,1.0
964868624,710,2020-07-28/964868624s710ms.jpg,964868624s710ms.jpg,701,31390,32270,33128,0.24267578,-0.1640625,0.6870116999999999,2.379836437937,-1.608903515625,6.737283287805001,430420670.0,-1036541911,-48.399999999999984,2.019,206.99,32219,32573,32787,12.073171,-3.3536584,33.048782,32717,32423,31342,-0.91,-1.79,-0.21,1.0,0.0,0.0,1.0
964868624,710,2020-07-28/964868624s710ms.jpg,964868624s710ms.jpg,577,31688,32468,33525,0.1459961,-0.35791016,0.5415039,1.4317326540649995,-3.509899670564,5.310339220935,430421028.0,-1036541623,-48.0,1.38,240.0,32421,32571,32684,12.195122,2.9268293,20.731707,32727,32455,31331,-1.19,-0.69,-0.21,1.0,0.0,0.0,1.0
964868624,710,2020-07-28/964868624s710ms.jpg,964868624s710ms.jpg,567,31201,33056,33174,-0.14111328,-0.18652344,0.7792969,-1.383848547312,-1.829170092876,7.642291944385,430421050.0,-1036541600,-48.0,1.34,243.39,32393,32575,32794,11.95122,-3.7804878,22.439024,32729,32463,31330,-1.19,-0.6,-0.21,1.0,0.0,0.0,1.0
964868624,710,2020-07-28/964868624s710ms.jpg,964868624s710ms.jpg,556,30136,32988,32732,-0.107910156,0.029296875,1.2993164,-1.0582371313374002,0.28730419921875,12.74194117406,430421067.0,-1036541580,-48.0,1.306,246.7,32364,32631,32902,8.536586,-10.365853,24.207317,32728,32456,31331,-1.19,-0.51,-0.21,1.0,0.0,0.0,1.0
964868624,710,2020-07-28/964868624s710ms.jpg,964868624s710ms.jpg,546,29114,32607,32658,0.078125,0.06542969,1.7983398000000002,0.7661445312499999,0.6416460694385,17.63568899967,430421082.0,-1036541557,-48.0,1.274,249.5,32391,32745,32830,1.5853659,-5.97561,22.560976,32724,32437,31334,-1.19,-0.44,-0.21,1.0,0.0,0.0,1.0
964868624,710,2020-07-28/964868624s710ms.jpg,964868624s710ms.jpg,506,30818,32261,33163,0.24707031,-0.18115234,0.9663086,2.4229320555615,-1.7764975950609998,9.47625023219,430421106.0,-1036541491,-47.80000000000001,1.102,262.52,32368,32722,32752,2.987805,-1.2195122,23.963415,32733,32467,31326,-1.09,-0.14,-0.2,1.0,0.0,0.0,1.0
964868624,710,2020-07-28/964868624s710ms.jpg,964868624s710ms.jpg,934,28932,33297,31781,-0.25878906,0.49365234,1.887207,-2.537853735249,4.841075720061,18.50717852655,430420238.0,-1036541964,-49.19999999999999,1.828,183.44,33155,32840,33164,-4.207317,-26.341463,-24.024391,32721,32485,31336,-0.1,-1.82,-0.22,1.0,0.0,0.0,1.0
964868624,710,2020-07-28/964868624s710ms.jpg,964868624s710ms.jpg,924,29691,33249,31711,-0.23535156,0.52783203,1.5166016000000002,-2.308010375874,5.1762639769995,14.87278108064,430420254.0,-1036541961,-49.19999999999999,1.855,183.63,33149,32760,33100,0.6707316999999999,-22.439024,-23.658537,32721,32485,31339,-0.11,-1.85,-0.22,1.0,0.0,0.0,1.0
964868624,710,2020-07-28/964868624s710ms.jpg,964868624s710ms.jpg,832,30551,32511,33516,0.125,-0.35351562,1.0966797,1.22583125,-3.4668039548729994,10.754753980005,430420395.0,-1036541997,-48.80000000000001,2.171,196.41,32864,32744,33059,1.6463414,-19.939024,-6.280488,32727,32478,31334,-0.61,-2.08,-0.22,1.0,0.0,0.0,1.0
964868624,710,2020-07-28/964868624s710ms.jpg,964868624s710ms.jpg,782,30718,32301,33047,0.22753906,-0.12451172,1.0151367,2.231395922749,-1.221042858938,9.955090319055,430420491.0,-1036541980,-48.80000000000001,2.212,198.81,32741,32710,33013,3.719512200000001,-17.134145999999998,1.2195122,32726,32462,31336,-0.71,-2.09,-0.22,1.0,0.0,0.0,1.0
964868624,710,2020-07-28/964868624s710ms.jpg,964868624s710ms.jpg,188,30179,32703,32940,0.03125,-0.072265625,1.2783203,0.3064578125,-0.70868369140625,12.536039769995,430421144.0,-1036540642,-47.0,1.046,305.59,32174,32666,32808,6.402439,-4.634146,35.792683000000004,32733,32462,31324,-0.85,0.6,-0.19,1.0,0.0,0.0,1.0
964868624,710,2020-07-28/964868624s710ms.jpg,964868624s710ms.jpg,486,31464,32483,33950,0.13867188,-0.5654296999999999,0.6508789,1.359906592002,-5.544971167505,6.382941564685,430421120.0,-1036541447,-47.80000000000001,1.07,266.37,32429,32751,32751,1.2195122,-1.1585366,20.243902,32728,32447,31330,-1.06,-0.06,-0.2,1.0,0.0,0.0,1.0
964868624,710,2020-07-28/964868624s710ms.jpg,964868624s710ms.jpg,455,30362,32758,33474,0.0043945312,-0.3330078,1.1889648000000002,0.04309562939248,-3.2656909418700004,11.65976165592,430421130.0,-1036541373,-47.80000000000001,1.021,269.51,32597,32867,32844,-5.8536587,-6.8292685,10.0,32729,32448,31330,-1.02,0.0,-0.2,1.0,0.0,0.0,1.0
964868624,710,2020-07-28/964868624s710ms.jpg,964868624s710ms.jpg,445,30613,32806,33517,-0.019042969,-0.3540039,1.0664062,-0.18674773194385,-3.4715923459349995,10.45787236123,430421131.0,-1036541339,-47.600000000000016,1.001,269.63,32555,32857,32782,-5.243901999999999,-3.0487804,12.560976,32733,32462,31324,-1.0,0.0,-0.2,1.0,0.0,0.0,1.0
964868624,710,2020-07-28/964868624s710ms.jpg,964868624s710ms.jpg,425,31216,32678,33036,0.04345703,-0.119140625,0.77197266,0.4261678832495,-1.16837041015625,7.570465686188999,430421131.0,-1036541279,-47.600000000000016,0.978,269.62,32497,32818,32710,-2.8658535,1.3414634,16.09756,32734,32471,31326,-0.97,0.0,-0.2,1.0,0.0,0.0,1.0
964868624,710,2020-07-28/964868624s710ms.jpg,964868624s710ms.jpg,394,30750,32881,32607,-0.055664062,0.09033203,0.9995117,-0.5458779736123001,0.8858546019994998,9.801861412805,430421159.0,-1036541191,-47.600000000000016,0.993,277.88,32456,32765,32775,0.36585367,-2.621951,18.59756,32728,32449,31330,-0.98,0.13,-0.2,1.0,0.0,0.0,1.0
964868624,710,2020-07-28/964868624s710ms.jpg,964868624s710ms.jpg,384,30940,32615,32271,0.07421875,0.25439453,0.9067383,0.7278373046875,2.4947581176245,8.892065149695,430421163.0,-1036541163,-47.600000000000016,0.999,279.87,32493,32733,32799,2.317073,-4.0853660000000005,16.341463,32733,32465,31327,-0.98,0.17,-0.2,1.0,0.0,0.0,1.0
964868624,710,2020-07-28/964868624s710ms.jpg,964868624s710ms.jpg,362,30856,32577,32560,0.09277344,0.11328125,0.9477539,0.909796655376,1.1109095703125,9.294290783435,430421179.0,-1036541106,-47.399999999999984,1.007,286.43,32527,32748,32769,1.402439,-2.2560976000000004,14.268292,32736,32478,31325,-0.96,0.28,-0.2,1.0,0.0,0.0,1.0
964868569,722,2020-07-28/964868569s722ms.jpg,964868569s722ms.jpg,710,31221,31821,33366,0.46191406,-0.28027344,0.76953125,4.529829516499,-2.748543530376,7.5465236328125,430449693.0,-1036557896,42.0,2.342,215.88,33617,32337,33320,26.463415,-35.853657,-52.19512,32755,32526,31217,-1.37,-1.89,-0.31,0.0,0.0,0.0,0.0
964868569,722,2020-07-28/964868569s722ms.jpg,964868569s722ms.jpg,599,30285,31881,32776,0.4326172,0.0078125,1.2265625,4.24252546438,0.076614453125,12.028469140625,430450084.0,-1036557460,42.39999999999998,2.49,211.48,32807,32492,33041,17.012196,-18.841463,-2.804878,32761,32503,31212,-1.3,-2.12,-0.31,0.0,0.0,0.0,0.0
964868569,722,2020-07-28/964868569s722ms.jpg,964868569s722ms.jpg,528,30948,32074,33076,0.3383789,-0.13867188,0.90283203,3.318363439685,-1.359906592002,8.853757726999499,430450361.0,-1036557168,42.60000000000002,2.577,206.0,32709,32553,32884,13.292682999999998,-9.268292,3.1707318,32761,32492,31206,-1.12,-2.31,-0.31,0.0,0.0,0.0,0.0
964868569,722,2020-07-28/964868569s722ms.jpg,964868569s722ms.jpg,740,32465,32199,33426,0.27734375,-0.3095703,0.16210938,2.7198130859375,-3.035847582495,1.589749951377,430449561.0,-1036558028,42.0,2.415,214.46,34006,32431,33445,20.731707,-43.47561,-75.914635,32759,32565,31205,-1.36,-1.99,-0.3,0.0,0.0,0.0,0.0
964868569,722,2020-07-28/964868569s722ms.jpg,964868569s722ms.jpg,518,31261,31905,33294,0.42089844,-0.24511719,0.75,4.127603686625998,-2.4037784913135,7.3549875,430450392.0,-1036557122,42.60000000000002,2.584,204.94,32686,32565,32763,12.560976,-1.8902439,4.5731707,32763,32499,31202,-1.08,-2.34,-0.31,0.0,0.0,0.0,0.0
964868569,722,2020-07-28/964868569s722ms.jpg,964868569s722ms.jpg,993,27471,32395,32473,0.18164062,0.15576172,2.600586,1.7812859861230002,1.527500671438,25.5030366969,430448072.0,-1036559022,41.0,3.383,200.0,33067,32842,32643,-4.3292685,5.4268293,-18.658537,32746,32598,31189,-1.15,-3.17,-0.31,0.0,0.0,0.0,0.0
964868569,722,2020-07-28/964868569s722ms.jpg,964868569s722ms.jpg,852,29070,33343,31596,-0.28125,0.5839844,1.8198242,-2.7581203125,5.726930616259999,17.84637899093,430448838.0,-1036558530,41.39999999999998,2.999,207.31,33424,32628,33384,8.719512,-39.756096,-40.42683,32739,32536,31209,-1.37,-2.66,-0.31,0.0,0.0,0.0,0.0
964868569,722,2020-07-28/964868569s722ms.jpg,964868569s722ms.jpg,831,31070,32820,33593,-0.025878906,-0.39111328,0.8432617,-0.2537853735249,-3.835511047312,8.269572350305001,430448944.0,-1036558450,41.60000000000002,2.948,208.04,33757,32554,33347,13.231708,-37.5,-60.73171,32743,32541,31209,-1.38,-2.6,-0.3,0.0,0.0,0.0,0.0
964868569,722,2020-07-28/964868569s722ms.jpg,964868569s722ms.jpg,508,31231,32267,33663,0.24414062,-0.42529297,0.76464844,2.394201611123,-4.1706993042504985,7.498639624126,430450429.0,-1036557080,42.79999999999996,2.59,204.14,32651,32611,32744,9.756098,-0.73170733,6.707317,32764,32506,31202,-1.05,-2.36,-0.31,0.0,0.0,0.0,0.0
964868569,722,2020-07-28/964868569s722ms.jpg,964868569s722ms.jpg,217,30879,33399,33676,-0.30859375,-0.43164062,0.93652344,-3.0262708984375,-4.232948486122998,9.184157592876,430451556.0,-1036556103,43.600000000000016,2.623,238.73,31892,32768,32556,0.18292683,10.731708,52.987804,32761,32492,31187,-2.24,-1.36,-0.31,0.0,0.0,0.0,0.0
964868569,722,2020-07-28/964868569s722ms.jpg,964868569s722ms.jpg,207,30327,33580,33847,-0.39697266,-0.5151367,1.2060547,-3.892971936189,-5.051765319055,11.827356323754998,430451583.0,-1036556047,43.79999999999996,2.624,238.21,31967,32818,32665,-2.8658535,4.0853660000000005,48.414635,32764,32509,31183,-2.22,-1.38,-0.31,0.0,0.0,0.0,0.0
964868569,722,2020-07-28/964868569s722ms.jpg,964868569s722ms.jpg,197,29584,33711,33195,-0.4609375,-0.19677734,1.5688476999999998,-4.520252734375,-1.929726501311,15.385140297205,430451595.0,-1036556028,43.79999999999996,2.625,237.74,32091,32811,32817,-2.4390244,-5.1829267,40.853657,32770,32529,31176,-2.22,-1.4,-0.31,0.0,0.0,0.0,0.0
964868569,722,2020-07-28/964868569s722ms.jpg,964868569s722ms.jpg,106,31672,32542,33573,0.10986328,-0.38134766,0.5493164,1.077390734812,-3.739743029939,5.38695367406,430451913.0,-1036555542,44.200000000000045,2.669,233.33,33308,32607,32980,10.0,-15.121951,-33.353657,32770,32512,31174,-2.14,-1.59,-0.31,0.0,0.0,0.0,0.0
964868569,722,2020-07-28/964868569s722ms.jpg,964868569s722ms.jpg,26,30482,32047,32840,0.3515625,-0.0234375,1.1303711,3.447650390625,-0.229843359375,11.085153747815,430452380.0,-1036555047,44.600000000000016,2.58,241.31,32853,32577,32908,11.829268,-10.731708,-5.609756,32766,32483,31177,-2.26,-1.23,-0.3,0.0,0.0,0.0,0.0
964868569,722,2020-07-28/964868569s722ms.jpg,964868569s722ms.jpg,227,30773,33422,33158,-0.31982422,-0.17871094,0.98828125,-3.1364041870630004,-1.752555639751,9.6917283203125,430451533.0,-1036556148,43.600000000000016,2.6210000000000004,239.01,31906,32712,32579,3.597561,9.329268,52.134148,32763,32503,31183,-2.24,-1.34,-0.31,0.0,0.0,0.0,0.0
964868569,722,2020-07-28/964868569s722ms.jpg,964868569s722ms.jpg,458,31009,32646,33536,0.05908203,-0.36328125,0.8730469000000001,0.5793967894995,-3.5625720703125,8.561665381885,430450638.0,-1036556914,42.79999999999996,2.575,205.79,32425,32739,32750,1.9512196,-1.097561,20.487804,32762,32490,31201,-1.12,-2.31,-0.31,0.0,0.0,0.0,0.0
964868569,722,2020-07-28/964868569s722ms.jpg,964868569s722ms.jpg,448,31151,32866,33568,-0.048339844,-0.37890625,0.80371094,-0.4740519311626,-3.7158009765625,7.881711889750999,430450687.0,-1036556885,43.0,2.553,207.32,32306,32766,32736,0.30487806,-0.24390244,27.743902,32766,32509,31197,-1.17,-2.26,-0.31,0.0,0.0,0.0,0.0
964868569,722,2020-07-28/964868569s722ms.jpg,964868569s722ms.jpg,398,31520,32346,33668,0.2055663999999999,-0.42773438,0.62353516,2.01591773656,-4.194641357627,6.114791076813999,430450970.0,-1036556724,43.0,2.394,219.15,32372,32684,32742,5.304878,-0.6097561,23.719513,32761,32484,31201,-1.51,-1.85,-0.31,0.0,0.0,0.0,0.0
964868569,722,2020-07-28/964868569s722ms.jpg,964868569s722ms.jpg,268,31340,33456,33431,-0.33642578,-0.31201172,0.7114258000000001,-3.299209875437,-3.059789733938,6.976703821569999,430451430.0,-1036556271,43.600000000000016,2.48,236.25,31914,32717,32557,3.292683,10.670732,51.646343,32765,32497,31187,-2.06,-1.37,-0.31,0.0,0.0,0.0,0.0
964868631,717,2020-07-28/964868631s717ms.jpg,964868631s717ms.jpg,662,30898,32868,33018,-0.0493164059999999,-0.11035156,0.9272461,-0.4836287328999,-1.082179125874,9.093177966565,430418865.0,-1036538817,-52.600000000000016,0.0,106.68,32227,32976,32690,-12.5,2.5609756,32.560974,32700,32477,31355,0.29,0.06,-0.06,2.0,0.0,1.0,1.0
964868631,717,2020-07-28/964868631s717ms.jpg,964868631s717ms.jpg,743,31286,32781,33056,-0.0068359375,-0.12890625,0.73779297,-0.0670376464843749,-1.2641384765625,7.235277429250499,430418806.0,-1036538618,-51.80000000000001,0.365,79.94,32713,32878,32808,-6.52439,-4.634146,2.9268293,32700,32463,31354,0.35,0.06,-0.06,2.0,0.0,1.0,1.0
964868631,717,2020-07-28/964868631s717ms.jpg,964868631s717ms.jpg,581,31380,33357,33286,-0.28808594,-0.24121094,0.69189453,-2.825157983501,-2.365471264751,6.7851674926245,430418775.0,-1036539079,-53.600000000000016,0.0,106.68,32303,32966,32584,-11.890244,9.02439,27.926828000000004,32700,32502,31350,0.23,-0.08,-0.08,2.0,0.0,1.0,1.0
964868631,717,2020-07-28/964868631s717ms.jpg,964868631s717ms.jpg,530,29955,33751,32765,-0.48046875,0.013183594,1.3876953,-4.7117888671875,0.1292868921001,13.608642113745,430418755.0,-1036539226,-54.19999999999999,0.0,106.68,32345,33035,32688,-16.09756,2.682927,25.365854,32694,32502,31354,0.23,-0.08,-0.09,2.0,0.0,1.0,1.0
964868631,717,2020-07-28/964868631s717ms.jpg,964868631s717ms.jpg,520,30276,33548,32446,-0.38134766,0.16894531,1.230957,-3.739743029939,1.6567875243114998,12.07156446405,430418746.0,-1036539251,-54.399999999999984,0.0,106.68,32407,32997,32729,-13.780488,0.18292683,21.585365,32697,32515,31349,0.24,-0.08,-0.09,2.0,0.0,1.0,1.0
964868631,717,2020-07-28/964868631s717ms.jpg,964868631s717ms.jpg,997,30955,32130,33113,0.31103516,-0.15673828,0.89941406,3.050212951814,-1.5370774535620002,8.820238891498999,430418089.0,-1036538802,-49.19999999999999,0.308,107.3,33196,32928,32974,-9.573171,-14.756098,-26.524391,32714,32518,31330,0.29,-0.09,-0.06,2.0,0.0,1.0,1.0
964868631,717,2020-07-28/964868631s717ms.jpg,964868631s717ms.jpg,987,31248,32091,33336,0.33007812,-0.265625,0.75634766,3.236960595498,-2.60489140625,7.417236779938999,430418096.0,-1036538811,-49.399999999999984,0.31,107.86,33206,32902,32961,-7.987805000000001,-13.963414000000002,-27.134146,32710,32502,31334,0.29,-0.09,-0.06,2.0,0.0,1.0,1.0
964868631,717,2020-07-28/964868631s717ms.jpg,964868631s717ms.jpg,905,30836,32342,33230,0.20751953,-0.21386719,0.95751953,2.0350713988745,-2.0973206788135,9.3900588988745,430418293.0,-1036538743,-50.19999999999999,0.317,100.02,33216,33023,32929,-15.365853,-12.012196,-27.743902,32715,32515,31335,0.31,-0.05,-0.06,2.0,0.0,1.0,1.0
964868631,717,2020-07-28/964868631s717ms.jpg,964868631s717ms.jpg,875,31176,32436,33312,0.1616211,-0.25390625,0.7915039,1.5849615603149998,-2.4899697265625,7.762001720935,430418368.0,-1036538698,-50.399999999999984,0.325,98.74,33217,33008,32889,-14.45122,-9.573171,-27.804878,32713,32508,31338,0.32,-0.04,-0.06,2.0,0.0,1.0,1.0
964868631,717,2020-07-28/964868631s717ms.jpg,964868631s717ms.jpg,823,31139,32473,32820,0.14355469,-0.013671875,0.8095703000000001,1.4077906006885,-0.1340752929687499,7.939172582494999,430418492.0,-1036538637,-51.0,0.345,95.27,33073,33000,32856,-13.963414000000002,-7.560975599999999,-19.024391,32707,32484,31347,0.34,-0.03,-0.06,2.0,0.0,1.0,1.0
964868631,717,2020-07-28/964868631s717ms.jpg,964868631s717ms.jpg,885,31225,32412,33130,0.17333984,-0.16503906,0.7675781,1.699883141936,-1.6184802977489998,7.527369774365,430418345.0,-1036538711,-50.399999999999984,0.321,98.9,33218,33000,32891,-13.963414000000002,-9.695122,-27.865854,32713,32506,31337,0.31,-0.04,-0.06,2.0,0.0,1.0,1.0
964868631,717,2020-07-28/964868631s717ms.jpg,964868631s717ms.jpg,205,30481,32552,32962,0.10498047,-0.08300781,1.1308593999999998,1.0295067261255,-0.8140285399364999,11.08994233501,430418348.0,-1036540083,-58.19999999999999,0.478,113.28,32343,32771,32777,0.0,-2.7439024,25.487804,32691,32501,31357,0.43,-0.18,-0.16,2.0,0.0,1.0,1.0
964868631,717,2020-07-28/964868631s717ms.jpg,964868631s717ms.jpg,195,30709,32802,32807,-0.017089844,-0.0073242188,1.0195312,-0.1675941186626,-0.07182605029502,9.99818564248,430418320.0,-1036540126,-58.19999999999999,0.476,117.66,32336,32719,32758,3.1707318,-1.5853659,25.914635,32689,32492,31360,0.42,-0.22,-0.17,2.0,0.0,1.0,1.0
964868631,717,2020-07-28/964868631s717ms.jpg,964868631s717ms.jpg,145,31050,33192,33166,-0.20751953,-0.18261719,0.85302734,-2.0350713988745,-1.7908628663135,8.365340563811001,430418368.0,-1036540236,-58.80000000000001,0.509,127.71,32264,32608,32741,9.939024,-0.5487805,30.304878,32703,32526,31343,0.4,-0.31,-0.18,2.0,0.0,1.0,1.0
964868631,717,2020-07-28/964868631s717ms.jpg,964868631s717ms.jpg,95,30267,32532,33195,0.114746094,-0.19677734,1.2353516000000002,1.1252747827251002,-1.929726501311,12.114660768139998,430418410.0,-1036540318,-59.399999999999984,0.593,138.97,32325,32782,32733,-0.6707316999999999,-0.06097561,26.585365000000003,32704,32533,31341,0.38,-0.44,-0.23,2.0,0.0,1.0,1.0
964868631,717,2020-07-28/964868631s717ms.jpg,964868631s717ms.jpg,500,30918,33379,32926,-0.29882812,-0.06542969,0.91748047,-2.9305027829979995,-0.6416460694385,8.9974098511255,430418729.0,-1036539308,-54.600000000000016,0.0,106.68,32529,33063,32748,-17.804878,-0.9756098,14.146341,32692,32512,31353,0.24,-0.08,-0.1,2.0,0.0,1.0,1.0
964868631,717,2020-07-28/964868631s717ms.jpg,964868631s717ms.jpg,245,30484,32300,32928,0.22802734,-0.06640625,1.1293945,2.236184313811,-0.6512228515624999,11.075576573425,430418426.0,-1036539936,-57.600000000000016,0.497,102.95,32263,32693,32823,4.756098000000001,-5.5487804,30.365854,32687,32473,31362,0.48,-0.11,-0.15,2.0,0.0,1.0,1.0
964868631,717,2020-07-28/964868631s717ms.jpg,964868631s717ms.jpg,412,31184,33060,33812,-0.1430664,-0.49804688,0.78759766,-1.4030021115600002,-4.884171435752,7.723694592438999,430418570.0,-1036539582,-55.600000000000016,0.0,106.68,32914,32987,33014,-13.170732,-17.195122,-9.329268,32689,32515,31353,0.27,-0.09,-0.12,2.0,0.0,1.0,1.0
964868631,717,2020-07-28/964868631s717ms.jpg,964868631s717ms.jpg,309,31945,32575,33608,0.09375,-0.3984375,0.41601562,0.9193734375,-3.907337109375,4.079719579872998,430418457.0,-1036539808,-56.80000000000001,0.49,103.32,32648,32620,32996,9.207317,-16.09756,6.890244,32689,32505,31359,0.47,-0.11,-0.14,2.0,0.0,1.0,1.0
964868631,717,2020-07-28/964868631s717ms.jpg,964868631s717ms.jpg,299,30916,32727,33471,0.01953125,-0.33154297,0.91845703,0.1915361328125,-3.2513258667505003,9.0069866332495,430418456.0,-1036539816,-57.0,0.508,101.08,32537,32621,32959,9.146341,-13.841463,13.658537,32693,32516,31356,0.49,-0.09,-0.14,2.0,0.0,1.0,1.0
964868647,700,2020-07-28/964868647s700ms.jpg,964868647s700ms.jpg,695,31078,33063,33616,-0.14453125,-0.40234375,0.83935547,-1.4173673828125,-3.9456443359375,8.231265319875499,430453729.0,-1036521146,-75.80000000000003,3.015,350.62,32723,32778,32527,-0.42682928,12.5,2.317073,32721,32549,31305,-0.49,2.97,-0.36,2.0,0.0,1.0,1.0
964868647,700,2020-07-28/964868647s700ms.jpg,964868647s700ms.jpg,665,29921,32877,32959,-0.053710938,-0.08154297,1.4042968999999998,-0.5267243701377,-0.7996633667505001,13.771448194385,430453721.0,-1036521082,-75.60000000000002,3.0660000000000003,350.19,32822,32809,32594,-2.317073,8.414634,-3.719512200000001,32712,32521,31312,-0.52,3.02,-0.35,2.0,0.0,1.0,1.0
964868647,700,2020-07-28/964868647s700ms.jpg,964868647s700ms.jpg,635,32565,33053,33748,-0.13964844,-0.46679688,0.11328125,-1.3694833741260002,-4.577713623252,1.1109095703125,430453706.0,-1036521015,-75.39999999999998,3.0980000000000003,349.65,33010,32661,32614,6.707317,7.1951220000000005,-15.182927,32721,32550,31304,-0.55,3.04,-0.35,2.0,0.0,1.0,1.0
964868647,700,2020-07-28/964868647s700ms.jpg,964868647s700ms.jpg,615,31146,33320,33332,-0.27001953,-0.26367188,0.80615234,-2.6479870238745,-2.585737842002,7.905653845061001,430453694.0,-1036520970,-75.19999999999997,3.11,349.11,33086,32769,32655,0.12195122,4.6951220000000005,-19.817074,32722,32557,31303,-0.58,3.05,-0.35,2.0,0.0,1.0,1.0
964868647,700,2020-07-28/964868647s700ms.jpg,964868647s700ms.jpg,545,31035,33119,33162,-0.171875,-0.18066406,0.86035156,-1.68551796875,-1.7717092039989997,8.437166625874,430453562.0,-1036520838,-75.0,3.137,346.78,33101,32720,32835,3.109756,-6.280488,-20.731707,32718,32536,31311,-0.71,3.05,-0.34,2.0,0.0,1.0,1.0
964868647,700,2020-07-28/964868647s700ms.jpg,964868647s700ms.jpg,765,31329,32332,33641,0.21240234,-0.41455078,0.7167969,2.082955407561,-4.065354406687,7.029376319384999,430453767.0,-1036521273,-76.0,2.865,352.31,32543,32608,32541,9.939024,11.646341,13.292682999999998,32719,32534,31310,-0.38,2.83,-0.36,2.0,0.0,1.0,1.0
964868647,700,2020-07-28/964868647s700ms.jpg,964868647s700ms.jpg,938,30066,33038,32803,-0.13232422,-0.0053710938,1.3334961,-1.297657312063,-0.05267243701377,13.077129529065,430453534.0,-1036521849,-77.19999999999997,2.174,341.61,32042,32445,32657,19.878048,4.5731707,43.841465,32712,32495,31333,-0.68,2.06,-0.39,2.0,0.0,1.0,1.0
964868647,700,2020-07-28/964868647s700ms.jpg,964868647s700ms.jpg,898,29539,33202,33022,-0.21240234,-0.11230469,1.5908203,-2.082955407561,-1.1013327881885,15.600617894995,430453582.0,-1036521716,-77.0,2.227,342.95,32133,32565,32643,12.560976,5.4268293,38.292683,32720,32536,31318,-0.65,2.12,-0.39,2.0,0.0,1.0,1.0
964868647,700,2020-07-28/964868647s700ms.jpg,964868647s700ms.jpg,817,30328,33001,33239,-0.11425781,-0.21826172,1.2055664,-1.1204863524365,-2.140416296438,11.822567736559998,430453702.0,-1036521448,-76.39999999999998,2.505,346.88,32330,32646,32578,7.621950999999999,9.390244,26.280487,32724,32549,31311,-0.56,2.43,-0.38,2.0,0.0,1.0,1.0
964868647,700,2020-07-28/964868647s700ms.jpg,964868647s700ms.jpg,807,30343,32880,32964,-0.05517578,-0.083984375,1.1982422,-0.5410895629370001,-0.82360537109375,11.750741870629998,430453715.0,-1036521404,-76.19999999999997,2.596,348.75,32369,32623,32615,9.02439,7.134146,23.90244,32718,32532,31316,-0.5,2.54,-0.37,2.0,0.0,1.0,1.0
964868647,700,2020-07-28/964868647s700ms.jpg,964868647s700ms.jpg,485,30233,32389,33356,0.18457031,-0.27539062,1.2519531000000002,1.8100164305615,-2.700659423623,12.277465868114998,430453453.0,-1036520696,-74.60000000000002,3.182,345.31,33049,32900,32876,-7.865854,-8.780488,-17.560976,32723,32554,31310,-0.8,3.07,-0.34,2.0,0.0,1.0,1.0
964868647,700,2020-07-28/964868647s700ms.jpg,964868647s700ms.jpg,211,30880,32938,32823,-0.083496094,-0.015136719,0.93603516,-0.8188169702250999,-0.1484405053813499,9.179369201814,430452487.0,-1036520092,-73.19999999999997,2.83,343.64,31993,32752,32422,1.1585366,18.90244,46.82927,32713,32560,31304,-0.79,2.71,-0.3,2.0,0.0,1.0,1.0
964868647,700,2020-07-28/964868647s700ms.jpg,964868647s700ms.jpg,201,30866,33083,33032,-0.15429688,-0.1171875,0.9428711,-1.5131354982519998,-1.149216796875,9.246406872815,430452468.0,-1036520057,-73.19999999999997,2.839,345.46,32035,32790,32412,-1.1585366,19.512196,44.26829,32708,32544,31307,-0.71,2.74,-0.3,2.0,0.0,1.0,1.0
964868647,700,2020-07-28/964868647s700ms.jpg,964868647s700ms.jpg,58,30534,33128,32421,-0.17626953,0.18115234,1.1049805,-1.7286135863745,1.7764975950609998,10.836157020325,430452298.0,-1036519719,-72.80000000000003,3.222,348.29,32506,32814,32384,-2.621951,21.219513,15.54878,32700,32566,31294,-0.65,3.15,-0.28,2.0,0.0,1.0,1.0
964868647,700,2020-07-28/964868647s700ms.jpg,964868647s700ms.jpg,505,30383,32345,32790,0.20605469,0.0009765625,1.1787108999999998,2.0207062256885,0.009576806640625,11.559205247485002,430453486.0,-1036520747,-74.80000000000003,3.162,345.85,33027,32817,32884,-2.804878,-9.268292,-16.219513,32719,32534,31314,-0.77,3.06,-0.34,2.0,0.0,1.0,1.0
964868647,700,2020-07-28/964868647s700ms.jpg,964868647s700ms.jpg,241,31016,32749,33351,0.0087890625,-0.27294922,0.8696289,0.086191259765625,-2.676717468313,8.528146252185,430452501.0,-1036520180,-73.19999999999997,2.748,342.22,31840,32782,32490,-0.6707316999999999,14.756098,56.158535,32712,32536,31308,-0.83,2.61,-0.3,2.0,0.0,1.0,1.0
964868647,700,2020-07-28/964868647s700ms.jpg,964868647s700ms.jpg,394,30638,33409,33408,-0.31347656,-0.30078125,1.0541992,-3.0741549071240004,-2.9496564453125,10.33816258468,430453079.0,-1036520528,-74.19999999999997,3.113,342.39,32347,32845,32765,-4.512194999999999,-2.012195,25.243902,32715,32520,31320,-0.94,2.96,-0.33,2.0,0.0,1.0,1.0
964868647,700,2020-07-28/964868647s700ms.jpg,964868647s700ms.jpg,344,30748,32957,33279,-0.09277344,-0.23779297,1.0004883,-0.909796655376,-2.3319524292505,9.811438587195,430452720.0,-1036520447,-73.80000000000003,2.7960000000000003,340.47,32068,32820,32747,-2.987805,-0.91463417,42.256096,32718,32532,31316,-0.93,2.63,-0.32,2.0,0.0,1.0,1.0
964868647,700,2020-07-28/964868647s700ms.jpg,964868647s700ms.jpg,292,30219,33091,33037,-0.15820312,-0.119628906,1.2587891000000002,-1.5514426267480002,-1.1731588110248998,12.344504127514998,430452525.0,-1036520334,-73.60000000000002,2.664,341.11,31913,32806,32624,-2.1341465,6.5853660000000005,51.707317,32716,32540,31314,-0.86,2.52,-0.31,2.0,0.0,1.0,1.0
964868647,700,2020-07-28/964868647s700ms.jpg,964868647s700ms.jpg,282,30823,33218,33087,-0.22021484,-0.14404297,0.9638671999999998,-2.159569860686,-1.4125789917504998,9.45230827688,430452505.0,-1036520311,-73.39999999999998,2.668,341.4,31886,32801,32572,-1.8292683,9.756098,53.353657,32713,32533,31314,-0.85,2.52,-0.31,2.0,0.0,1.0,1.0
964868677,730,2020-07-28/964868677s730ms.jpg,964868677s730ms.jpg,677,32313,32947,32129,-0.087890625,0.32373047,0.23632812,-0.86191259765625,3.1747114136255004,2.317587157998,430500262.0,-1036462540,-113.39999999999998,1.67,60.15,33473,32658,32830,6.890244,-5.97561,-43.414635,32668,32634,31253,1.44,0.83,-0.23,3.0,1.0,2.0,3.0
964868677,730,2020-07-28/964868677s730ms.jpg,964868677s730ms.jpg,707,28365,33502,33681,-0.35888672,-0.43408203,2.1640625,-3.519476452688,-4.2568905394995,21.222203515625,430500330.0,-1036462459,-113.39999999999998,1.731,61.43,33390,32968,32875,-12.012196,-8.719512,-38.353657,32673,32649,31243,1.51,0.82,-0.23,3.0,1.0,2.0,3.0
964868677,730,2020-07-28/964868677s730ms.jpg,964868677s730ms.jpg,523,36110,31921,33634,0.41308594,-0.4111327999999999,-1.6176758,4.050989233500999,-4.03183547312,-15.86398038407,430500185.0,-1036462724,-115.2,1.487,71.16,32835,32255,32678,31.463415,3.292683,-4.512194999999999,32680,32639,31261,1.4,0.48,-0.23,3.0,1.0,2.0,3.0
964868677,730,2020-07-28/964868677s730ms.jpg,964868677s730ms.jpg,607,32122,32676,34339,0.044433594,-0.7553711,0.32958984,0.4357447046001,-7.407659997814998,3.232172204436,430500051.0,-1036462672,-113.39999999999998,1.5590000000000002,68.32,33151,32981,32918,-12.804878,-11.341463,-23.780487,32676,32638,31259,1.44,0.57,-0.23,3.0,1.0,2.0,3.0
964868677,730,2020-07-28/964868677s730ms.jpg,964868677s730ms.jpg,544,32720,31871,33307,0.4375,-0.25146484,0.037597656,4.290409374999999,-2.466027673186,0.3687070532124,430500152.0,-1036462704,-114.8,1.507,71.09,32712,32312,32566,27.987804,10.121951,2.987805,32678,32637,31264,1.42,0.48,-0.23,3.0,1.0,2.0,3.0
964868677,730,2020-07-28/964868677s730ms.jpg,964868677s730ms.jpg,627,31766,33157,31821,-0.19042969,0.4741210999999999,0.50341797,-1.8674773194385,4.649539685315,4.9368438355005,430500120.0,-1036462654,-113.39999999999998,1.551,64.32,33452,32586,32870,11.280488,-8.414634,-42.134148,32669,32618,31261,1.39,0.67,-0.23,3.0,1.0,2.0,3.0
964868677,730,2020-07-28/964868677s730ms.jpg,964868677s730ms.jpg,747,34573,32506,33452,0.1274414,-0.32226562,-0.8671875,1.24977320531,-3.160346142373,-8.504204296874999,430500419.0,-1036462346,-113.60000000000002,1.834,64.02,33336,32949,32683,-10.853659,2.987805,-35.060974,32666,32632,31243,1.64,0.8,-0.23,3.0,1.0,2.0,3.0
964868677,730,2020-07-28/964868677s730ms.jpg,964868677s730ms.jpg,991,31543,32283,34407,0.23632812,-0.7885741999999999,0.6123046999999999,2.317587157998,-7.733271178430001,6.004657886255,430500679.0,-1036461784,-112.60000000000002,2.158,66.54,34152,31922,32710,51.76829,1.3414634,-84.81707,32663,32678,31220,1.98,0.85,-0.24,3.0,1.0,2.0,3.0
964868677,730,2020-07-28/964868677s730ms.jpg,964868677s730ms.jpg,971,28595,32883,32772,-0.056640625,0.009765625,2.0517578000000003,-0.55545478515625,0.09576806640625,20.12087062937,430500723.0,-1036461828,-113.0,2.068,66.22,34238,32153,33061,37.682926,-20.060976,-90.060974,32656,32653,31229,1.89,0.83,-0.24,3.0,1.0,2.0,3.0
964868677,730,2020-07-28/964868677s730ms.jpg,964868677s730ms.jpg,921,28992,35020,32871,-1.1000976999999998,-0.03857422,1.8579102,-10.788273109705,-0.378283874563,18.21987506283,430500788.0,-1036461926,-113.60000000000002,2.051,65.76,33229,32175,33003,36.341465,-16.524391,-28.536585,32663,32669,31234,1.87,0.84,-0.24,3.0,1.0,2.0,3.0
964868677,730,2020-07-28/964868677s730ms.jpg,964868677s730ms.jpg,847,32948,32116,31799,0.3178710999999999,0.48486328,-0.07373047,3.117250622815,4.754884484812,-0.7230489136255001,430500625.0,-1036462120,-113.60000000000002,2.005,66.71,33156,31990,32753,47.621952,-1.2804878,-24.085365,32674,32684,31229,1.84,0.79,-0.24,3.0,1.0,2.0,3.0
964868677,730,2020-07-28/964868677s730ms.jpg,964868677s730ms.jpg,797,33848,31919,30704,0.4140625,1.0195312,-0.5131836,4.060566015625,9.99818564248,-5.032611950939999,430500531.0,-1036462227,-113.60000000000002,1.953,65.34,32931,32755,32519,0.9756098,12.987804,-10.365853,32665,32633,31238,1.77,0.81,-0.24,3.0,1.0,2.0,3.0
964868677,730,2020-07-28/964868677s730ms.jpg,964868677s730ms.jpg,169,29464,31907,32963,0.41992188,-0.083496094,1.6274414,4.118026904502,-0.8188169702250999,15.95974820531,430500659.0,-1036463173,-123.8,1.33,67.76,33263,33399,33382,-38.292683,-39.634148,-30.609756,32708,32581,31275,1.23,0.5,-0.22,3.0,1.0,2.0,3.0
964868677,730,2020-07-28/964868677s730ms.jpg,964868677s730ms.jpg,249,34393,31690,34043,0.5258789,-0.61083984,-0.7792969,5.157110314685,-5.990292516936001,-7.642291944385,430500623.0,-1036463051,-121.60000000000002,1.511,83.65,33027,32488,32662,17.256098,4.268293,-16.219513,32706,32616,31272,1.5,0.16,-0.22,3.0,1.0,2.0,3.0
964868677,730,2020-07-28/964868677s730ms.jpg,964868677s730ms.jpg,443,30455,33640,32179,-0.42626953,0.2993164,1.1435547,-4.1802760863745,2.93529117406,11.214440698754997,430500324.0,-1036462784,-117.0,1.546,75.61,33354,32536,33125,14.329268,-23.963415,-36.158535,32681,32640,31258,1.49,0.38,-0.23,3.0,1.0,2.0,3.0
964868677,730,2020-07-28/964868677s730ms.jpg,964868677s730ms.jpg,413,31351,32925,33601,-0.07714844,-0.39501953,0.7060546999999999,-0.7565677491259999,-3.8738182738745,6.924031323755,430500401.0,-1036462813,-117.8,1.524,76.85,33398,32568,32960,12.378049,-13.902439,-38.841465,32676,32620,31265,1.48,0.34,-0.23,3.0,1.0,2.0,3.0
964868677,730,2020-07-28/964868677s730ms.jpg,964868677s730ms.jpg,382,30722,34368,35731,-0.7817383000000001,-1.4350586,1.0131836,-7.666233899694999,-14.073117419689998,9.93593695094,430500472.0,-1036462839,-118.39999999999998,1.537,78.46,33677,32083,33016,41.951218,-17.317073999999998,-55.853657,32677,32614,31268,1.5,0.3,-0.22,3.0,1.0,2.0,3.0
964868677,730,2020-07-28/964868677s730ms.jpg,964868677s730ms.jpg,371,30189,33894,37370,-0.55029297,-2.2353516,1.2734375,-5.3965305542505,-21.92131076814,12.488155859375,430500490.0,-1036462849,-118.8,1.548,79.15,33754,32130,33120,39.085365,-23.658537,-60.548782,32679,32614,31267,1.52,0.29,-0.22,3.0,1.0,2.0,3.0
964868677,730,2020-07-28/964868677s730ms.jpg,964868677s730ms.jpg,403,31437,32607,31276,0.078125,0.7402344,0.6640625,0.7661445312499999,7.259219678759999,6.512228515625,430500427.0,-1036462821,-118.0,1.524,77.55,33465,32390,32916,23.231707,-11.219512,-42.92683,32676,32617,31266,1.48,0.32,-0.23,3.0,1.0,2.0,3.0
964868661,714,2020-07-28/964868661s714ms.jpg,964868661s714ms.jpg,659,29894,33219,32605,-0.22070312,0.091308594,1.4174805,-2.164358251748,0.8954314233501001,13.900735145325,430485600.0,-1036503314,-133.39999999999998,5.7010000000000005,43.34,32328,32808,32736,-2.2560976000000004,-0.24390244,26.40244,32751,32488,31291,3.91,4.14,-0.3,2.0,0.0,1.0,1.0
964868661,714,2020-07-28/964868661s714ms.jpg,964868661s714ms.jpg,681,29773,32572,32719,0.095214844,0.03564453,1.4765625,0.9337386499126,0.3495534301245,14.480131640624998,430485656.0,-1036503206,-133.39999999999998,5.6370000000000005,43.22,32279,32807,32778,-2.195122,-2.804878,29.390244,32752,32487,31292,3.86,4.1,-0.3,2.0,0.0,1.0,1.0
964868661,714,2020-07-28/964868661s714ms.jpg,964868661s714ms.jpg,691,32301,32336,34266,0.21044922,-0.71972656,0.2421875,2.063801843313,-7.058106469624,2.375048046875,430485669.0,-1036503168,-133.39999999999998,5.556,43.18,32236,32776,32701,-0.30487806,1.8902439,32.012196,32747,32471,31297,3.8,4.05,-0.3,2.0,0.0,1.0,1.0
964868661,714,2020-07-28/964868661s714ms.jpg,964868661s714ms.jpg,639,31456,32845,33086,-0.038085938,-0.14355469,0.65478516,-0.3734954638877,-1.4077906006885,6.421248889314,430485544.0,-1036503421,-133.2,5.763,43.14,32418,32678,32794,5.6707315000000005,-3.7804878,20.914635,32745,32470,31297,3.94,4.2,-0.3,2.0,0.0,1.0,1.0
964868661,714,2020-07-28/964868661s714ms.jpg,964868661s714ms.jpg,589,30524,32488,32920,0.13623047,-0.0625,1.1098633,1.3359645386255,-0.612915625,10.884040930945,430485478.0,-1036503662,-133.2,6.007000000000001,41.28,32261,32600,32706,10.426829,1.5853659,30.487804,32746,32472,31292,3.96,4.51,-0.3,2.0,0.0,1.0,1.0
964868661,714,2020-07-28/964868661s714ms.jpg,964868661s714ms.jpg,992,32120,32939,33501,-0.083984375,-0.3461914,0.3305664,-0.82360537109375,-3.39497789281,3.24174898656,430485873.0,-1036502239,-134.39999999999998,4.228,38.09,32190,32712,32279,3.597561,27.621952,34.817074,32751,32461,31299,2.6,3.32,-0.31,2.0,0.0,1.0,1.0
964868661,714,2020-07-28/964868661s714ms.jpg,964868661s714ms.jpg,517,30417,33141,33106,-0.18261719,-0.15332031,1.1621093999999998,-1.7908628663135,-1.5035586180614997,11.396400147510002,430485268.0,-1036504081,-133.0,6.157,38.76,32034,32705,32632,4.02439,6.097561,44.32927,32748,32481,31287,3.85,4.8,-0.31,2.0,0.0,1.0,1.0
964868661,714,2020-07-28/964868661s714ms.jpg,964868661s714ms.jpg,932,34190,32985,33337,-0.10644531,-0.26611328,-0.6801758000000001,-1.0438718993115002,-2.6096797973120003,-6.67024600907,430485862.0,-1036502419,-134.2,4.409,38.94,32440,32807,32837,-2.195122,-6.402439,19.573172,32753,32480,31297,2.77,3.42,-0.3,2.0,0.0,1.0,1.0
964868661,714,2020-07-28/964868661s714ms.jpg,964868661s714ms.jpg,841,30918,32536,32928,0.11279297,-0.06640625,0.91748047,1.1061211792505,-0.6512228515624999,8.9974098511255,430485826.0,-1036502738,-133.8,4.761,38.68,32263,32723,32751,2.9268293,-1.1585366,30.365854,32748,32458,31299,2.97,3.71,-0.3,2.0,0.0,1.0,1.0
964868661,714,2020-07-28/964868661s714ms.jpg,964868661s714ms.jpg,882,30187,32636,32870,0.063964844,-0.038085938,1.2744141000000002,0.6272808374126,-0.3734954638877,12.497733033764998,430485873.0,-1036502583,-134.0,4.636,38.54,32484,32682,32805,5.4268293,-4.4512196,16.890244,32751,32472,31295,2.88,3.62,-0.3,2.0,0.0,1.0,1.0
964868661,714,2020-07-28/964868661s714ms.jpg,964868661s714ms.jpg,214,30790,32671,32726,0.046875,0.032226562,0.97998047,0.45968671875,0.3160346142372999,9.6103254761255,430483938.0,-1036505870,-132.2,5.818,30.81,32311,32798,32481,-1.6463414,15.304878,27.439024,32732,32517,31276,2.98,4.99,-0.3,2.0,0.0,1.0,1.0
964868661,714,2020-07-28/964868661s714ms.jpg,964868661s714ms.jpg,174,30322,33184,32644,-0.20361328,0.072265625,1.2084961,-1.996764172312,0.70868369140625,11.851298279065,430483757.0,-1036506067,-132.2,5.829,29.18,32440,32643,32503,7.804877999999999,13.963414000000002,19.573172,32744,32554,31266,2.84,5.08,-0.31,2.0,0.0,1.0,1.0
964868661,714,2020-07-28/964868661s714ms.jpg,964868661s714ms.jpg,64,31371,33072,33264,-0.14892578,-0.23046875,0.69628906,-1.460463000437,-2.2601263671875,6.828263110249,430483394.0,-1036506499,-131.8,5.968999999999999,23.31,32594,32435,32466,20.487804,16.219513,10.182927,32741,32563,31258,2.36,5.48,-0.3,2.0,0.0,1.0,1.0
964868661,714,2020-07-28/964868661s714ms.jpg,964868661s714ms.jpg,51,30981,32919,33360,-0.07421875,-0.27734375,0.88671875,-0.7278373046875,-2.7198130859375,8.695740429687499,430483350.0,-1036506533,-131.8,5.972,23.21,32529,32497,32483,16.707317,15.182927,14.146341,32734,32538,31261,2.35,5.48,-0.3,2.0,0.0,1.0,1.0
964868661,714,2020-07-28/964868661s714ms.jpg,964868661s714ms.jpg,457,30273,32651,34219,0.056640625,-0.69677734,1.2324218999999998,0.55545478515625,-6.833051501311001,12.085930225635,430485027.0,-1036504493,-132.8,6.08,35.36,31867,33013,32532,-14.756098,12.195122,54.512196,32746,32486,31284,3.51,4.95,-0.31,2.0,0.0,1.0,1.0
964868661,714,2020-07-28/964868661s714ms.jpg,964868661s714ms.jpg,437,28901,33055,31577,-0.140625,0.5932616999999999,1.9023438,-1.37906015625,5.817909850305001,18.65561982627,430484959.0,-1036504595,-132.8,6.073,35.0,31871,32948,32542,-10.792683,11.585366,54.26829,32751,32512,31278,3.48,4.97,-0.31,2.0,0.0,1.0,1.0
964868661,714,2020-07-28/964868661s714ms.jpg,964868661s714ms.jpg,387,29962,33295,32846,-0.2578125,-0.026367188,1.3842773000000002,-2.528276953125,-0.2585737842002,13.575122984045,430484741.0,-1036504898,-132.60000000000002,5.948,33.46,31955,32906,32510,-8.231708,13.536585999999998,49.146343,32753,32536,31273,3.27,4.96,-0.31,2.0,0.0,1.0,1.0
964868661,714,2020-07-28/964868661s714ms.jpg,964868661s714ms.jpg,367,29676,33413,32458,-0.3154297,0.16308594,1.5239258,-3.093308667505,1.5993267335010002,14.94460694657,430484660.0,-1036504989,-132.60000000000002,5.981,33.56,32026,32914,32461,-8.719512,16.524391,44.817074,32746,32517,31277,3.3,4.98,-0.31,2.0,0.0,1.0,1.0
964868661,714,2020-07-28/964868661s714ms.jpg,964868661s714ms.jpg,274,31082,33001,32883,-0.11425781,-0.044433594,0.83740234,-1.1204863524365,-0.4357447046001,8.212111657561001,430484223.0,-1036505460,-132.39999999999998,5.89,33.47,32315,32854,32523,-5.060975599999999,12.743902,27.195122,32737,32514,31279,3.24,4.91,-0.3,2.0,0.0,1.0,1.0
964868661,714,2020-07-28/964868661s714ms.jpg,964868661s714ms.jpg,334,30964,33230,33289,-0.22607422,-0.24267578,0.89501953,-2.217030749563,-2.379836437937,8.777143273874499,430484542.0,-1036505120,-132.39999999999998,5.989,33.89,32101,32933,32440,-9.878049,17.804878,40.243904,32744,32520,31277,3.33,4.97,-0.31,2.0,0.0,1.0,1.0
964868679,698,2020-07-28/964868679s698ms.jpg,964868679s698ms.jpg,716,31341,32337,32890,0.20996094,-0.047851562,0.7109375,2.059013452251,-0.4692635204873,6.971915234375,430498032.0,-1036460357,-84.80000000000003,0.6409999999999999,56.27,31527,32515,32354,15.609756,23.04878,75.243904,32760,32414,31279,0.53,0.35,-0.22,2.0,0.0,1.0,1.0
964868679,698,2020-07-28/964868679s698ms.jpg,964868679s698ms.jpg,696,31740,33211,33732,-0.21679688,-0.45898438,0.5161133,-2.126051123252,-4.501099170127,5.061342493444998,430498088.0,-1036460342,-85.19999999999997,0.652,56.27,31547,32678,32430,5.6707315000000005,18.414635,74.02439,32767,32441,31272,0.54,0.36,-0.22,2.0,0.0,1.0,1.0
964868679,698,2020-07-28/964868679s698ms.jpg,964868679s698ms.jpg,726,28161,33019,33525,-0.123046875,-0.35791016,2.2636719,-1.20667763671875,-3.509899670564,22.199038038135,430498002.0,-1036460364,-84.60000000000002,0.6409999999999999,56.27,31484,32905,32541,-8.170732000000001,11.646341,77.86585,32760,32408,31277,0.53,0.35,-0.2,2.0,0.0,1.0,1.0
964868679,698,2020-07-28/964868679s698ms.jpg,964868679s698ms.jpg,566,28645,34887,35032,-1.0351562,-1.09375,2.0273438,-10.15141454873,-10.7260234375,19.88145107627,430498523.0,-1036460191,-88.19999999999997,0.999,56.27,31579,33683,32527,-55.609756,12.5,72.07316999999999,32765,32470,31263,0.83,0.55,-0.23,2.0,0.0,1.0,1.0
964868679,698,2020-07-28/964868679s698ms.jpg,964868679s698ms.jpg,546,24553,33376,29728,-0.29736328,1.4960938,4.025390600000001,-2.916137609812,14.671668263769998,39.47559672748999,430498597.0,-1036460184,-88.80000000000003,1.04,56.27,31747,33229,32580,-27.926828000000004,9.268292,61.82927,32764,32486,31263,0.86,0.57,-0.23,2.0,0.0,1.0,1.0
964868679,698,2020-07-28/964868679s698ms.jpg,964868679s698ms.jpg,736,27271,33146,31616,-0.1850586,0.57421875,2.6982422,-1.81480491969,5.6311623046875,26.46071687063,430497968.0,-1036460363,-84.39999999999998,0.6459999999999999,56.27,31519,33289,32619,-31.585365000000003,6.890244,75.731705,32763,32411,31275,0.53,0.35,-0.2,2.0,0.0,1.0,1.0
964868679,698,2020-07-28/964868679s698ms.jpg,964868679s698ms.jpg,746,29655,34113,29797,-0.65722656,1.4624023000000002,1.5341797,-6.445190844623999,14.341267515294998,15.045163355004997,430497934.0,-1036460360,-84.19999999999997,0.657,56.27,31521,33297,32715,-32.073170000000005,1.0365853,75.60976,32766,32415,31275,0.54,0.36,-0.2,2.0,0.0,1.0,1.0
964868679,698,2020-07-28/964868679s698ms.jpg,964868679s698ms.jpg,766,31749,33691,28751,-0.45117188,1.9731445,0.51171875,-4.4244847170020005,19.349937510925,5.0182466796875,430497864.0,-1036460365,-83.60000000000002,0.804,56.27,31626,33004,32108,-14.207317000000002,38.048782,69.20730999999999,32764,32399,31274,0.66,0.44,-0.19,2.0,0.0,1.0,1.0
964868679,698,2020-07-28/964868679s698ms.jpg,964868679s698ms.jpg,926,31306,32328,31991,0.21435547,0.39111328,0.72802734,2.1021090698755,3.835511047312,7.139509313811001,430497431.0,-1036460276,-80.60000000000002,1.0759999999999998,56.27,32113,32495,32955,16.829268,-13.597561,39.512196,32760,32412,31287,0.89,0.59,-0.13,2.0,0.0,1.0,1.0
964868679,698,2020-07-28/964868679s698ms.jpg,964868679s698ms.jpg,856,33238,31099,34698,0.8144531,-0.93066406,-0.21533203,7.987056493114999,-9.126696703999,-2.1116858519995,430497558.0,-1036460305,-81.60000000000002,1.04,56.27,31923,32344,32749,26.036585,-1.0365853,51.09756,32759,32401,31290,0.86,0.57,-0.15,2.0,0.0,1.0,1.0
964868679,698,2020-07-28/964868679s698ms.jpg,964868679s698ms.jpg,836,32088,32382,31910,0.18798828,0.43066406,0.3461914,1.843535266062,4.223371703999,3.39497789281,430497631.0,-1036460306,-82.0,1.026,56.27,32224,32264,33096,30.914635,-22.195122,32.743904,32764,32416,31282,0.85,0.56,-0.16,2.0,0.0,1.0,1.0
964868679,698,2020-07-28/964868679s698ms.jpg,964868679s698ms.jpg,366,33212,32387,33077,0.18554688,-0.13916016,-0.20263672,1.819593310752,-1.364694983064,-1.987187390188,430499431.0,-1036460260,-94.8,1.183,56.27,33547,32573,32623,12.073171,6.6463413000000005,-47.92683,32755,32480,31263,0.98,0.65,-0.23,2.0,0.0,1.0,1.0
964868679,698,2020-07-28/964868679s698ms.jpg,964868679s698ms.jpg,206,29971,32098,31473,0.32666016,0.64404297,1.3798828,3.203441858064,6.3159039917505,13.53202766062,430499885.0,-1036460218,-99.2,1.394,56.27,32390,32569,32711,12.317073,1.2804878,22.621952,32766,32501,31254,1.15,0.77,-0.24,2.0,0.0,1.0,1.0
964868679,698,2020-07-28/964868679s698ms.jpg,964868679s698ms.jpg,176,33503,31685,33788,0.5283203000000001,-0.48632812,-0.34472656,5.181052269994999,-4.769249657998,-3.380612719624,430500018.0,-1036460224,-100.0,1.378,56.27,32127,32897,32452,-7.6829267,17.073172,38.658535,32764,32487,31254,1.14,0.76,-0.24,2.0,0.0,1.0,1.0
964868679,698,2020-07-28/964868679s698ms.jpg,964868679s698ms.jpg,105,35893,31410,32977,0.66259766,-0.09033203,-1.5117188,6.497863342439,-0.8858546019994998,-14.824897170019998,430500354.0,-1036460314,-102.2,1.232,56.27,32000,32212,32017,34.085365,43.59756,46.402440000000006,32762,32498,31256,1.02,0.68,-0.24,2.0,0.0,1.0,1.0
964868679,698,2020-07-28/964868679s698ms.jpg,964868679s698ms.jpg,75,26582,35087,31557,-1.1328125,0.60302734,3.034668,-11.109095703125,5.913678063811001,29.7599269422,430500490.0,-1036460338,-103.0,1.178,56.27,32214,32618,32568,9.329268,10.0,33.353657,32759,32494,31249,0.97,0.65,-0.24,2.0,0.0,1.0,1.0
964868679,698,2020-07-28/964868679s698ms.jpg,964868679s698ms.jpg,65,25281,35069,31601,-1.1240233999999998,0.58154297,3.6699219,-11.02290407561,5.702988366750501,35.989639600634995,430500537.0,-1036460348,-103.2,1.162,56.27,32206,32633,32535,8.414634,12.012196,33.841465,32760,32498,31248,0.96,0.64,-0.24,2.0,0.0,1.0,1.0
964868679,698,2020-07-28/964868679s698ms.jpg,964868679s698ms.jpg,15,29535,33667,29104,-0.43945312,1.8007812,1.5927733999999998,-4.309562939248,17.65963095498,15.61977126311,430500784.0,-1036460361,-104.60000000000002,1.279,56.27,32395,33711,32525,-57.317074,12.621951,22.317074,32756,32503,31249,1.06,0.71,-0.24,2.0,0.0,1.0,1.0
964868679,698,2020-07-28/964868679s698ms.jpg,964868679s698ms.jpg,426,31674,32899,33156,-0.064453125,-0.17773438,0.54833984,-0.63206923828125,-1.7429788576269998,5.3773768919360005,430499275.0,-1036460230,-93.39999999999998,1.259,56.27,32648,32902,32278,-7.987805000000001,27.682926,6.890244,32755,32478,31263,1.04,0.69,-0.23,2.0,0.0,1.0,1.0
964868679,698,2020-07-28/964868679s698ms.jpg,964868679s698ms.jpg,416,30304,32247,33079,0.25390625,-0.14013672,1.2172851999999998,2.4899697265625,-1.374271765188,11.93748990658,430499297.0,-1036460237,-93.60000000000002,1.257,56.27,32799,32844,32348,-4.4512196,23.414635,-2.317073,32756,32486,31263,1.04,0.69,-0.23,2.0,0.0,1.0,1.0
964868681,700,2020-07-28/964868681s700ms.jpg,964868681s700ms.jpg,645,31710,32720,33988,0.022949219,-0.5839844,0.5307616999999999,0.22505495850635,-5.726930616259999,5.204994225305,430500124.0,-1036458912,-81.39999999999998,1.371,56.27,32319,32877,32667,-6.4634147,3.9634147,26.951220000000003,32734,32444,31329,1.14,0.76,-0.15,3.0,1.0,2.0,3.0
964868681,700,2020-07-28/964868681s700ms.jpg,964868681s700ms.jpg,625,29184,32873,32175,-0.051757812,0.30126953,1.7641601999999998,-0.5075707470498,2.9544448363745,17.30050162533,430500089.0,-1036458897,-81.39999999999998,1.385,56.27,32461,32962,32626,-11.646341,6.4634147,18.292683,32732,32438,31331,1.15,0.76,-0.15,3.0,1.0,2.0,3.0
964868681,700,2020-07-28/964868681s700ms.jpg,964868681s700ms.jpg,868,30957,33170,33577,-0.19677734,-0.38330078,0.8984375,-1.929726501311,-3.758896594187,8.810662109374997,430500547.0,-1036458852,-81.80000000000003,1.239,56.27,32549,32538,33240,14.207317000000002,-30.975609,12.926829,32727,32417,31334,1.03,0.68,-0.16,3.0,1.0,2.0,3.0
964868681,700,2020-07-28/964868681s700ms.jpg,964868681s700ms.jpg,758,35106,32037,33277,0.3564453,-0.2368163999999999,-1.1274414,3.495534301245,-2.32237554906,-11.05642320531,430500339.0,-1036458904,-81.60000000000002,1.3,56.27,31771,32566,32714,12.5,1.097561,60.365852,32729,32413,31336,1.08,0.72,-0.16,3.0,1.0,2.0,3.0
964868681,700,2020-07-28/964868681s700ms.jpg,964868681s700ms.jpg,858,29405,33407,33264,-0.3125,-0.23046875,1.65625,-3.064578125,-2.2601263671875,16.2422640625,430500528.0,-1036458855,-81.80000000000003,1.251,56.27,32477,32600,33321,10.426829,-35.914635,17.317073999999998,32732,32432,31330,1.04,0.69,-0.16,3.0,1.0,2.0,3.0
964868681,700,2020-07-28/964868681s700ms.jpg,964868681s700ms.jpg,848,28472,33148,32868,-0.18603516,-0.037109375,2.1118164,-1.824381701814,-0.36391865234375,20.70984429906,430500511.0,-1036458858,-81.80000000000003,1.264,56.27,32391,32730,33158,2.5,-25.975609,22.560976,32740,32456,31323,1.05,0.7,-0.16,3.0,1.0,2.0,3.0
964868681,700,2020-07-28/964868681s700ms.jpg,964868681s700ms.jpg,778,25866,32978,30625,-0.103027344,1.0581055,3.3842773,-1.0103531030375998,10.376470301575,33.188422984045,430500380.0,-1036458908,-81.60000000000002,1.291,56.27,31958,33065,32963,-17.926828,-14.085366,48.963413,32734,32431,31326,1.07,0.71,-0.16,3.0,1.0,2.0,3.0
964868681,700,2020-07-28/964868681s700ms.jpg,964868681s700ms.jpg,96,30199,32942,32754,-0.08544922,0.018554688,1.2685547,-0.8379705933130001,0.1819593310752,12.440271948755,430499100.0,-1036459091,-81.0,1.487,56.27,33609,32957,33132,-11.341463,-24.390244,-51.707317,32737,32482,31325,1.23,0.82,-0.14,3.0,1.0,2.0,3.0
964868681,700,2020-07-28/964868681s700ms.jpg,964868681s700ms.jpg,66,30899,33307,31896,-0.26367188,0.4375,0.9267578000000002,-2.585737842002,4.290409374999999,9.08838937937,430499042.0,-1036459098,-81.0,1.482,56.27,33656,32850,33263,-4.8170733,-32.378048,-54.57317,32728,32434,31333,1.23,0.82,-0.14,3.0,1.0,2.0,3.0
964868681,700,2020-07-28/964868681s700ms.jpg,964868681s700ms.jpg,36,31024,33009,33356,-0.11816406,-0.27539062,0.86572266,-1.158793578999,-2.700659423623,8.489839123689,430498984.0,-1036459109,-81.0,1.473,56.27,33773,32823,33398,-3.1707318,-40.609756,-61.707317,32732,32442,31330,1.22,0.81,-0.14,3.0,1.0,2.0,3.0
964868681,700,2020-07-28/964868681s700ms.jpg,964868681s700ms.jpg,216,29611,32634,34444,0.064941406,-0.8066406,1.5556641000000002,0.6368576391498999,-7.910442039989999,15.255853346265,430499327.0,-1036459121,-81.0,1.403,56.27,33051,33130,32525,-21.890244,12.621951,-17.682926000000002,32729,32462,31327,1.16,0.77,-0.14,3.0,1.0,2.0,3.0
964868681,700,2020-07-28/964868681s700ms.jpg,964868681s700ms.jpg,226,31608,32698,34046,0.033691406,-0.6123046999999999,0.5805664,0.3303998266499,-6.004657886255,5.6934114865600005,430499342.0,-1036459127,-81.0,1.395,56.27,32942,32984,32241,-12.987804,29.939024,-11.036586,32727,32456,31327,1.16,0.77,-0.14,3.0,1.0,2.0,3.0
964868681,700,2020-07-28/964868681s700ms.jpg,964868681s700ms.jpg,490,29566,33539,32747,-0.37695312,0.021972656,1.5776367,-3.696647314248,0.2154781469624,15.471330944055,430499794.0,-1036458974,-81.19999999999997,1.406,56.27,32780,32964,33092,-11.768292,-21.951220000000003,-1.1585366,32739,32480,31320,1.16,0.78,-0.15,3.0,1.0,2.0,3.0
964868681,700,2020-07-28/964868681s700ms.jpg,964868681s700ms.jpg,460,33197,33340,34586,-0.27978516,-0.87597656,-0.1953125,-2.743755139314,-8.590395532123999,-1.915361328125,430499712.0,-1036459005,-81.19999999999997,1.3730000000000002,56.27,32732,32387,32909,23.414635,-10.792683,1.7682927,32728,32434,31332,1.14,0.76,-0.15,3.0,1.0,2.0,3.0
964868681,700,2020-07-28/964868681s700ms.jpg,964868681s700ms.jpg,450,34434,32824,35391,-0.027832031,-1.269043,-0.7993164,-0.27293898680615,-12.44506053595,-7.83861617406,430499688.0,-1036459017,-81.19999999999997,1.37,56.27,32736,32363,32848,24.878048,-7.0731707,1.5243902,32729,32437,31332,1.13,0.76,-0.15,3.0,1.0,2.0,3.0
