utc_s (s),utc_ms (ms)_x,file_path,filename,utc_ms (ms)_y,accel_x (counts),accel_y (counts),accel_z (counts),calibrated_accel_x (g),calibrated_accel_y (g),calibrated_accel_z (g),calibrated_accel_x (m/s^2),calibrated_accel_y (m/s^2),calibrated_accel_z (m/s^2),position_lat (semicircles),position_long (semicircles),enhanced_altitude (m),enhanced_speed (m/s),heading (degrees),gyro_x (counts),gyro_y (counts),gyro_z (counts),calibrated_gyro_x (deg/s),calibrated_gyro_y (deg/s),calibrated_gyro_z (deg/s),mag_x (counts),mag_y (counts),mag_z (counts),velocity (m/s)1,velocity (m/s)2,velocity (m/s)3,tsm1_original,tsm1_k2,tsm1_k3,tsm1_k4
964868685,704,2020-07-28/964868685s704ms.jpg,964868685s704ms.jpg,693,27636,33561,32722,-0.3876953,0.034179688,2.5200195,-3.801992113745,0.3351882373252,24.712949229675,430511171.0,-1036451436,-90.0,2.248,58.7,33521,33223,32981,-27.560976,-15.182927,-46.341465,32720,32480,31339,1.92,1.16,-0.27,3.0,1.0,2.0,3.0
964868685,704,2020-07-28/964868685s704ms.jpg,964868685s704ms.jpg,683,27840,33811,34437,-0.5097656,-0.80322266,2.4204102,-4.9990928212400005,-7.876923498688999,23.73611568783,430511150.0,-1036451470,-90.0,2.248,58.9,33476,33127,33032,-21.707317,-18.292683,-43.59756,32721,32475,31341,1.92,1.16,-0.27,3.0,1.0,2.0,3.0
964868685,704,2020-07-28/964868685s704ms.jpg,964868685s704ms.jpg,582,33974,32262,31701,0.24658203,0.53271484,-0.57470703,2.4181436644995,5.224147985686,-5.6359506957495,430510949.0,-1036451816,-89.60000000000002,2.099,55.43,32391,32257,33085,31.341463,-21.524391,22.560976,32716,32431,31352,1.72,1.19,-0.26,3.0,1.0,2.0,3.0
964868685,704,2020-07-28/964868685s704ms.jpg,964868685s704ms.jpg,552,25936,32679,31686,0.04296875,0.54003906,3.3500977,0.4213794921875,5.2959740477490005,32.853235609705,430510893.0,-1036451913,-89.60000000000002,2.079,54.46,32249,32520,33195,15.304878,-28.231707,31.219513,32718,32428,31348,1.69,1.2,-0.26,3.0,1.0,2.0,3.0
964868685,704,2020-07-28/964868685s704ms.jpg,964868685s704ms.jpg,743,30922,33556,35247,-0.3852539,-1.1987305,0.91552734,-3.778050158435,-11.755530457824998,8.978256188810999,430511396.0,-1036451140,-90.0,2.403,58.05,32759,33033,32601,-15.97561,7.987805000000001,0.12195122,32717,32454,31343,2.03,1.27,-0.27,3.0,1.0,2.0,3.0
964868685,704,2020-07-28/964868685s704ms.jpg,964868685s704ms.jpg,512,31326,32476,33924,0.14208984,-0.5527344,0.7182616999999999,1.393425329436,-5.420472803759999,7.043741100305001,430510818.0,-1036452038,-89.39999999999998,2.07,53.38,32028,32450,32842,19.573172,-6.707317,44.69512,32722,32440,31343,1.66,1.23,-0.26,3.0,1.0,2.0,3.0
964868685,704,2020-07-28/964868685s704ms.jpg,964868685s704ms.jpg,946,31603,33112,30425,-0.16845703,1.1557617,0.5830078000000001,-1.6519991332495,11.334150475305,5.717353441869999,430511852.0,-1036450158,-90.60000000000002,2.432,65.43,32424,32798,32944,-1.6463414,-12.926829,20.54878,32735,32455,31324,2.21,1.01,-0.27,3.0,1.0,2.0,3.0
964868685,704,2020-07-28/964868685s704ms.jpg,964868685s704ms.jpg,876,32017,32133,31371,0.3095703,0.69384766,0.38085938,3.035847582495,6.804321154938999,3.734954638877,430511729.0,-1036450482,-90.39999999999998,2.552,64.16,32217,33070,32677,-18.231707,3.3536584,33.17073,32730,32441,31330,2.29,1.11,-0.27,3.0,1.0,2.0,3.0
964868685,704,2020-07-28/964868685s704ms.jpg,964868685s704ms.jpg,199,29205,32456,32358,0.15185547,0.21191406,1.7539062,1.4891934448754998,2.078167016499,17.19994423623,430509774.0,-1036453234,-88.60000000000002,1.959,72.52,31944,32830,32201,-3.597561,32.378048,49.817074,32722,32499,31329,1.86,0.58,-0.26,3.0,1.0,2.0,3.0
964868685,704,2020-07-28/964868685s704ms.jpg,964868685s704ms.jpg,159,30302,33270,33043,-0.24560547,-0.122558594,1.2182617,-2.4085668823755,-1.2018892358501,11.947066100305,430509710.0,-1036453361,-88.60000000000002,1.959,74.46,32464,32740,32082,1.8902439,39.634148,18.109756,32713,32483,31337,1.88,0.52,-0.26,3.0,1.0,2.0,3.0
964868685,704,2020-07-28/964868685s704ms.jpg,964868685s704ms.jpg,67,30184,33374,33676,-0.29638672,-0.43164062,1.2758789,-2.906560827688,-4.232948486122998,12.512097814685,430509563.0,-1036453652,-88.19999999999997,1.813,76.82,33619,32660,32533,6.768292999999999,12.134147,-52.317074,32707,32493,31336,1.76,0.41,-0.26,3.0,1.0,2.0,3.0
964868685,704,2020-07-28/964868685s704ms.jpg,964868685s704ms.jpg,7,30554,33424,33483,-0.32080078,-0.33740234,1.0952148000000002,-3.145980969187,-3.308786657561,10.740388218419998,430509500.0,-1036453826,-88.19999999999997,1.801,75.72,33237,32520,32765,15.304878,-2.012195,-29.024391,32711,32496,31336,1.74,0.44,-0.26,3.0,1.0,2.0,3.0
964868685,704,2020-07-28/964868685s704ms.jpg,964868685s704ms.jpg,219,30114,32487,32657,0.13671875,0.06591797,1.3100586,1.3407529296874998,0.6464344605005,12.84728616969,430509886.0,-1036453119,-88.60000000000002,1.957,70.67,31669,32961,32232,-11.585366,30.487804,66.585365,32715,32470,31341,1.84,0.64,-0.26,3.0,1.0,2.0,3.0
964868685,704,2020-07-28/964868685s704ms.jpg,964868685s704ms.jpg,229,30436,32676,32859,0.044433594,-0.032714844,1.152832,0.4357447046001,-0.3208230249125999,11.3054199328,430509940.0,-1036453062,-88.60000000000002,1.96,69.81,31530,32950,32189,-10.914634,33.109756,75.060974,32716,32461,31342,1.83,0.67,-0.26,3.0,1.0,2.0,3.0
964868685,704,2020-07-28/964868685s704ms.jpg,964868685s704ms.jpg,442,30741,33451,32383,-0.33398438,0.19970703,1.0039062,-3.2752679201270003,1.9584569457495,9.84495673623,430510683.0,-1036452229,-89.19999999999997,2.091,54.8,32144,32784,32686,-0.79268295,2.804878,37.621952,32721,32434,31339,1.7,1.2,-0.26,3.0,1.0,2.0,3.0
964868685,704,2020-07-28/964868685s704ms.jpg,964868685s704ms.jpg,412,29331,33082,33861,-0.1538086,-0.52197266,1.6923828,-1.50834710719,-5.118803186188999,16.59660578562,430510606.0,-1036452323,-89.19999999999997,2.026,56.38,32205,32986,32875,-13.109756,-8.719512,33.902440000000006,32724,32451,31338,1.68,1.12,-0.26,3.0,1.0,2.0,3.0
964868685,704,2020-07-28/964868685s704ms.jpg,964868685s704ms.jpg,402,29502,33218,33239,-0.22021484,-0.21826172,1.6088867,-2.159569860686,-2.140416296438,15.777788756555,430510551.0,-1036452375,-89.19999999999997,2.012,56.93,32245,32890,32801,-7.256098,-4.207317,31.463415,32726,32464,31335,1.68,1.09,-0.26,3.0,1.0,2.0,3.0
964868685,704,2020-07-28/964868685s704ms.jpg,964868685s704ms.jpg,351,31070,32995,33334,-0.111328125,-0.26464844,0.8432617,-1.0917559570312498,-2.595314624126,8.269572350305001,430510249.0,-1036452648,-89.0,1.956,62.68,32151,32800,32657,-1.7682927,4.5731707,37.19512,32726,32464,31333,1.73,0.89,-0.26,3.0,1.0,2.0,3.0
964868685,704,2020-07-28/964868685s704ms.jpg,964868685s704ms.jpg,320,30607,32917,32731,-0.07324219,0.029785156,1.0693358999999998,-0.7182605225634999,0.2920926000874,10.486602903735,430510097.0,-1036452800,-89.0,1.93,66.4,32240,32990,32721,-13.353659,0.6707316999999999,31.768293,32722,32459,31340,1.76,0.77,-0.26,3.0,1.0,2.0,3.0
964868685,704,2020-07-28/964868685s704ms.jpg,964868685s704ms.jpg,260,31003,33298,33439,-0.25927734,-0.31591797,0.87597656,-2.542642126311,-3.0980969605004995,8.590395532123999,430509985.0,-1036452974,-88.80000000000003,1.958,68.76,31669,32885,32412,-6.9512196,19.512196,66.585365,32729,32489,31331,1.82,0.7,-0.26,3.0,1.0,2.0,3.0
964868643,729,2020-07-28/964868643s729ms.jpg,964868643s729ms.jpg,611,31924,33055,33743,-0.140625,-0.46435547,0.42626953,-1.37906015625,-4.5537715698755,4.1802760863745,430439106.0,-1036520305,-60.600000000000016,4.397,348.34,32721,32695,32614,4.634146,7.1951220000000005,2.4390244,32709,32487,31345,-0.88,4.3,-0.9,1.0,0.0,0.0,1.0
964868643,729,2020-07-28/964868643s729ms.jpg,964868643s729ms.jpg,551,31679,33152,33987,-0.18798828,-0.5834961,0.54589844,-1.843535266062,-5.722142029064998,5.353434936626,430439129.0,-1036519960,-59.19999999999999,4.46,350.18,32790,32647,32747,7.560975599999999,-0.91463417,-1.7682927,32715,32516,31337,-0.76,4.39,-0.86,1.0,0.0,0.0,1.0
964868643,729,2020-07-28/964868643s729ms.jpg,964868643s729ms.jpg,541,31415,33232,34126,-0.22705078,-0.6513671999999999,0.6748046999999999,-2.226607531687,-6.3877301518800005,6.617573511254999,430439148.0,-1036519886,-58.80000000000001,4.478,350.98,32746,32654,32743,7.134146,-0.6707316999999999,0.91463417,32712,32504,31340,-0.7,4.42,-0.85,1.0,0.0,0.0,1.0
964868643,729,2020-07-28/964868643s729ms.jpg,964868643s729ms.jpg,742,30520,32817,33372,-0.024414062,-0.28320312,1.1118164,-0.2394201611122999,-2.777273876748,10.90319429906,430439349.0,-1036520917,-63.19999999999999,4.511,345.53,32592,32690,32842,4.939024400000001,-6.707317,10.304878,32707,32482,31348,-1.12,4.36,-0.96,1.0,0.0,0.0,1.0
964868643,729,2020-07-28/964868643s729ms.jpg,964868643s729ms.jpg,954,30523,32997,33423,-0.11230469,-0.30810547,1.1103516000000002,-1.1013327881885,-3.0214825073755,10.88882951814,430440184.0,-1036522052,-56.80000000000001,4.584,346.22,32572,32886,32845,-7.012194999999999,-6.890244,11.52439,32709,32501,31346,-1.09,4.45,-0.39,1.0,0.0,0.0,1.0
964868643,729,2020-07-28/964868643s729ms.jpg,964868643s729ms.jpg,924,31290,32902,32929,-0.06591797,-0.06689453,0.73583984,-0.6464344605005,-0.6560112426245001,7.216123766936,430440110.0,-1036521919,-56.80000000000001,4.734,344.12,32613,32717,32808,3.292683,-4.634146,9.02439,32700,32466,31353,-1.29,4.55,-0.41,1.0,0.0,0.0,1.0
964868643,729,2020-07-28/964868643s729ms.jpg,964868643s729ms.jpg,904,31611,32478,33453,0.14111328,-0.3227539,0.57910156,1.383848547312,-3.1651345334350003,5.679046313373999,430440085.0,-1036521793,-57.0,4.769,343.88,32615,32693,32827,4.756098000000001,-5.792683,8.902439,32706,32488,31350,-1.32,4.58,-0.43,1.0,0.0,0.0,1.0
964868643,729,2020-07-28/964868643s729ms.jpg,964868643s729ms.jpg,762,30212,32792,33498,-0.012207031,-0.34472656,1.262207,-0.1197100805561499,-3.380612719624,12.37802227655,430439383.0,-1036521010,-63.600000000000016,4.501,344.76,32577,32715,32768,3.4146342000000005,-2.195122,11.219512,32702,32468,31352,-1.18,4.34,-0.97,1.0,0.0,0.0,1.0
964868643,729,2020-07-28/964868643s729ms.jpg,964868643s729ms.jpg,894,31031,32553,33179,0.10449219,-0.18896484,0.8623046999999998,1.0247183350635,-1.853112048186,8.456320386255,430440066.0,-1036521744,-57.0,4.853,343.73,32613,32715,32854,3.4146342000000005,-7.439024400000001,9.02439,32710,32503,31347,-1.35,4.65,-0.43,1.0,0.0,0.0,1.0
964868643,729,2020-07-28/964868643s729ms.jpg,964868643s729ms.jpg,864,29753,33083,33012,-0.15429688,-0.107421875,1.4863281000000002,-1.5131354982519998,-1.05344873046875,14.575899461865,430439962.0,-1036521599,-57.19999999999999,4.848,343.46,32560,32876,32821,-6.402439,-5.4268293,12.256098,32703,32472,31352,-1.38,4.64,-0.47,1.0,0.0,0.0,1.0
964868643,729,2020-07-28/964868643s729ms.jpg,964868643s729ms.jpg,834,29912,32799,31874,-0.015625,0.4482422,1.4086914,-0.15322890625,4.395754370630001,13.81454351781,430439792.0,-1036521470,-58.399999999999984,4.77,343.48,32539,32850,32809,-4.8170733,-4.6951220000000005,13.536585999999998,32708,32485,31348,-1.35,4.57,-0.56,1.0,0.0,0.0,1.0
964868643,729,2020-07-28/964868643s729ms.jpg,964868643s729ms.jpg,804,31861,32316,33299,0.22021484,-0.2475586,0.45703125,2.159569860686,-2.42772054469,4.4819455078125,430439640.0,-1036521348,-59.19999999999999,4.69,343.51,32597,32616,32765,9.45122,-2.012195,10.0,32713,32509,31345,-1.33,4.49,-0.63,1.0,0.0,0.0,1.0
964868643,729,2020-07-28/964868643s729ms.jpg,964868643s729ms.jpg,794,32141,32492,33638,0.13427734,-0.41308594,0.3203125,1.3168108763109998,-4.050989233500999,3.141192578125,430439609.0,-1036521299,-59.0,4.668,343.86,32584,32605,32771,10.121951,-2.3780490000000003,10.792683,32708,32494,31350,-1.29,4.48,-0.63,1.0,0.0,0.0,1.0
964868643,729,2020-07-28/964868643s729ms.jpg,964868643s729ms.jpg,784,31740,32688,33603,0.03857422,-0.3959960999999999,0.5161133,0.378283874563,-3.883395154065,5.061342493444998,430439508.0,-1036521208,-60.80000000000001,4.635,343.99,32569,32622,32770,9.085366,-2.317073,11.707317,32706,32485,31352,-1.27,4.45,-0.76,1.0,0.0,0.0,1.0
964868643,729,2020-07-28/964868643s729ms.jpg,964868643s729ms.jpg,124,30179,32586,32889,0.088378906,-0.04736328,1.2783203,0.8667009985248999,-0.464475109812,12.536039769995,430438402.0,-1036517803,-50.600000000000016,4.959,352.71,32403,32858,32858,-5.304878,-7.6829267,21.829268,32718,32473,31334,-0.62,4.91,-0.6,1.0,0.0,0.0,1.0
964868643,729,2020-07-28/964868643s729ms.jpg,964868643s729ms.jpg,154,32129,32579,33427,0.091796875,-0.3100585999999999,0.32617188,0.9002198242187499,-3.0406361696900004,3.1986534670020004,430438529.0,-1036517913,-51.0,4.925,352.93,32444,32745,32730,1.5853659,0.12195122,19.329268,32728,32509,31325,-0.6,4.88,-0.61,1.0,0.0,0.0,1.0
964868643,729,2020-07-28/964868643s729ms.jpg,964868643s729ms.jpg,23,30197,33095,32849,-0.16015625,-0.027832031,1.2695312,-1.5705962890624998,-0.27293898680615,12.449848142480002,430438193.0,-1036517362,-49.399999999999984,5.252000000000001,353.67,32676,32881,32863,-6.707317,-7.987805000000001,5.1829267,32725,32500,31327,-0.57,5.21,-0.57,1.0,0.0,0.0,1.0
964868643,729,2020-07-28/964868643s729ms.jpg,964868643s729ms.jpg,228,31603,32665,33570,0.049804688,-0.3798828,0.5830078000000001,0.4884171435752,-3.72537766062,5.717353441869999,430438876.0,-1036518236,-52.19999999999999,4.898,354.28,32559,32747,32989,1.4634147,-15.670732,12.317073,32721,32491,31330,-0.48,4.87,-0.65,1.0,0.0,0.0,1.0
964868643,729,2020-07-28/964868643s729ms.jpg,964868643s729ms.jpg,471,30771,32859,33305,-0.044921875,-0.25048828,0.9892578000000002,-0.44053310546875,-2.456450891062,9.70130500437,430439144.0,-1036519487,-57.600000000000016,4.563,353.84,32740,32678,32770,5.6707315000000005,-2.317073,1.2804878,32712,32495,31339,-0.48,4.53,-0.82,1.0,0.0,0.0,1.0
964868643,729,2020-07-28/964868643s729ms.jpg,964868643s729ms.jpg,348,31180,33069,33906,-0.14746094,-0.5439453000000001,0.7895508000000001,-1.446097827251,-5.334281176245,7.742848352819999,430439034.0,-1036518853,-55.19999999999999,4.742,355.52,32649,32611,32780,9.756098,-2.9268293,6.8292685,32718,32507,31333,-0.37,4.72,-0.75,1.0,0.0,0.0,1.0
964868620,706,2020-07-28/964868620s706ms.jpg,964868620s706ms.jpg,653,31080,32873,33048,-0.051757812,-0.125,0.8383789,-0.5075707470498,-1.22583125,8.221688439685,430419313.0,-1036536529,-41.60000000000002,1.829,64.01,32708,32689,32703,5.0,1.7682927,3.2317073,32734,32582,31244,1.64,0.8,-0.07,1.0,0.0,0.0,0.0
964868620,706,2020-07-28/964868620s706ms.jpg,964868620s706ms.jpg,643,30898,32760,32623,0.0034179688,0.08251953,0.9272461,0.03351882373252,0.8092401488744999,9.093177966565,430419303.0,-1036536551,-41.60000000000002,1.848,64.68,32692,32713,32647,3.5365853,5.1829267,4.207317,32728,32560,31249,1.67,0.79,-0.07,1.0,0.0,0.0,0.0
964868620,706,2020-07-28/964868620s706ms.jpg,964868620s706ms.jpg,613,30226,33115,32876,-0.16992188,-0.041015625,1.2553711,-1.666364404502,-0.40222587890625,12.310984997815002,430419293.0,-1036536626,-41.60000000000002,1.909,63.78,32636,32845,32733,-4.512194999999999,-0.06097561,7.621950999999999,32729,32564,31250,1.71,0.84,-0.06,1.0,0.0,0.0,0.0
964868620,706,2020-07-28/964868620s706ms.jpg,964868620s706ms.jpg,593,30303,33841,32831,-0.52441406,-0.019042969,1.2177733999999998,-5.142745141499,-0.18674773194385,11.94227751311,430419280.0,-1036536675,-41.60000000000002,1.948,63.69,32709,32891,32776,-7.3170733,-2.682927,3.1707318,32730,32566,31248,1.74,0.86,-0.06,1.0,0.0,0.0,0.0
964868620,706,2020-07-28/964868620s706ms.jpg,964868620s706ms.jpg,864,30693,32991,33364,-0.109375,-0.27929688,1.0273438,-1.07260234375,-2.7389667482520004,10.07480107627,430419417.0,-1036536196,-42.0,1.314,49.24,32595,32727,32641,2.682927,5.5487804,10.121951,32737,32584,31243,0.99,0.85,-0.09,1.0,0.0,0.0,0.0
964868620,706,2020-07-28/964868620s706ms.jpg,964868620s706ms.jpg,964,30919,32864,32257,-0.04736328,0.26123047,0.9169921999999998,-0.464475109812,2.5617957886255,8.99262155813,430419532.0,-1036536053,-42.19999999999999,1.385,49.43,32458,32803,32743,-1.9512196,-0.6707316999999999,18.475609,32729,32544,31257,1.05,0.9,-0.09,1.0,0.0,0.0,0.0
964868620,706,2020-07-28/964868620s706ms.jpg,964868620s706ms.jpg,954,31844,32806,33075,-0.019042969,-0.1381836,0.46533203,-0.18674773194385,-1.3551182009399998,4.5633483519995,430419525.0,-1036536070,-42.19999999999999,1.362,48.3,32455,32722,32701,2.987805,1.8902439,18.658537,32730,32547,31256,1.01,0.9,-0.09,1.0,0.0,0.0,0.0
964868620,706,2020-07-28/964868620s706ms.jpg,964868620s706ms.jpg,511,29633,32765,32086,0.0009765625,0.34472656,1.5449218999999998,0.009576806640625,3.380612719624,15.150508350635,430419204.0,-1036536847,-41.60000000000002,2.162,68.08,32724,32801,32683,-1.8292683,2.987805,2.2560976000000004,32738,32611,31237,2.0,0.8,-0.06,1.0,0.0,0.0,0.0
964868620,706,2020-07-28/964868620s706ms.jpg,964868620s706ms.jpg,844,30771,33392,32851,-0.30517578,-0.028808594,0.9892578000000002,-2.992752062937,-0.2825157983500999,9.70130500437,430419405.0,-1036536218,-42.0,1.367,49.17,32652,32778,32681,-0.42682928,3.109756,6.6463413000000005,32728,32552,31249,1.03,0.89,-0.09,1.0,0.0,0.0,0.0
964868620,706,2020-07-28/964868620s706ms.jpg,964868620s706ms.jpg,804,30874,32729,32870,0.018554688,-0.038085938,0.93896484,0.1819593310752,-0.3734954638877,9.208099548186,430419375.0,-1036536254,-42.0,1.479,51.84,32791,32813,32778,-2.5609756,-2.804878,-1.8292683,32733,32578,31244,1.16,0.91,-0.08,1.0,0.0,0.0,0.0
964868620,706,2020-07-28/964868620s706ms.jpg,964868620s706ms.jpg,794,30529,32632,32351,0.06591797,0.21533203,1.1074218999999998,0.6464344605005,2.1116858519995,10.860098975635,430419362.0,-1036536263,-42.0,1.4980000000000002,53.69,32817,32814,32781,-2.621951,-2.987805,-3.4146342000000005,32736,32589,31243,1.2,0.88,-0.08,1.0,0.0,0.0,0.0
964868620,706,2020-07-28/964868620s706ms.jpg,964868620s706ms.jpg,874,30425,32884,33225,-0.0571289059999999,-0.21142578,1.1582031000000002,-0.5602431860249,-2.073378625437,11.358092430615,430419427.0,-1036536181,-42.19999999999999,1.2990000000000002,49.47,32556,32705,32630,4.02439,6.219512,12.5,32736,32577,31244,0.98,0.84,-0.09,1.0,0.0,0.0,0.0
964868620,706,2020-07-28/964868620s706ms.jpg,964868620s706ms.jpg,481,31436,33014,33119,-0.12060547,-0.15966797,0.6645508000000001,-1.1827356323755,-1.5658078980005,6.51701710282,430419164.0,-1036536923,-41.39999999999998,2.193,70.9,32804,32756,32740,0.91463417,-0.4878049,-2.621951,32728,32574,31249,2.07,0.71,-0.05,1.0,0.0,0.0,0.0
964868620,706,2020-07-28/964868620s706ms.jpg,964868620s706ms.jpg,210,30852,32944,33150,-0.08642578,-0.17480469,0.94970703,-0.8475473754369999,-1.7142484131885,9.3134444457495,430419012.0,-1036537582,-41.19999999999999,1.795,77.96,32827,32839,32844,-4.1463413000000005,-6.8292685,-4.02439,32728,32572,31252,1.75,0.37,-0.05,1.0,0.0,0.0,0.0
964868620,706,2020-07-28/964868620s706ms.jpg,964868620s706ms.jpg,200,30156,32523,32498,0.119140625,0.14355469,1.2895508,1.16837041015625,1.4077906006885,12.64617335282,430419001.0,-1036537658,-41.19999999999999,1.789,79.14,32810,32799,32813,-1.7073171000000005,-4.939024400000001,-2.987805,32731,32586,31250,1.75,0.33,-0.04,1.0,0.0,0.0,0.0
964868620,706,2020-07-28/964868620s706ms.jpg,964868620s706ms.jpg,180,30907,32450,33436,0.15478516,-0.31445312,0.92285156,1.517923889314,-3.083731689248,9.050082250874,430419001.0,-1036537711,-41.0,1.773,79.72,32864,32814,32764,-2.621951,-1.9512196,-6.280488,32723,32560,31258,1.74,0.31,-0.04,1.0,0.0,0.0,0.0
964868620,706,2020-07-28/964868620s706ms.jpg,964868620s706ms.jpg,148,30730,32989,32297,-0.10839844,0.24169922,1.0092773000000002,-1.0630255616259998,2.370259655813,9.897629234045,430418991.0,-1036537800,-41.0,1.633,80.65,32826,32703,32826,4.1463413000000005,-5.731707,-3.9634147,32724,32563,31259,1.61,0.26,-0.04,1.0,0.0,0.0,0.0
964868620,706,2020-07-28/964868620s706ms.jpg,964868620s706ms.jpg,58,31106,33435,33941,-0.32617188,-0.56103516,0.8256836,-3.1986534670020004,-5.501875451814,8.097190075939999,430418982.0,-1036538003,-41.0,1.556,80.77,32818,32733,32766,2.317073,-2.0731707,-3.4756098,32733,32582,31252,1.53,0.24,-0.04,1.0,0.0,0.0,0.0
964868620,706,2020-07-28/964868620s706ms.jpg,964868620s706ms.jpg,250,30954,32810,32939,-0.020996094,-0.071777344,0.89990234,-0.2059013452251,-0.7038952905375999,8.825027282560999,430419019.0,-1036537500,-41.19999999999999,1.6840000000000002,75.78,32888,32741,32841,1.8292683,-6.6463413000000005,-7.743902,32724,32562,31255,1.63,0.41,-0.05,1.0,0.0,0.0,0.0
964868620,706,2020-07-28/964868620s706ms.jpg,964868620s706ms.jpg,411,30742,32992,33192,-0.10986328,-0.1953125,1.003418,-1.077390734812,-1.915361328125,9.840169129699998,430419070.0,-1036537107,-41.39999999999998,1.945,74.94,32833,32768,32730,0.18292683,0.12195122,-4.390244,32725,32572,31252,1.87,0.5,-0.05,1.0,0.0,0.0,0.0
964868688,707,2020-07-28/964868688s707ms.jpg,964868688s707ms.jpg,577,30438,33699,33263,-0.45507812,-0.22998047,1.1518555,-4.462791845498,-2.2553379761255,11.295843739074998,430515497.0,-1036442755,-98.39999999999998,2.079,49.65,32244,32847,32370,-4.634146,22.073172,31.524391,32709,32482,31342,1.58,1.34,-0.3,3.0,1.0,2.0,3.0
964868688,707,2020-07-28/964868688s707ms.jpg,964868688s707ms.jpg,555,30482,33300,32618,-0.2602539,0.08496094,1.1303711,-2.5522189084349995,0.8331822022509999,11.085153747815,430515431.0,-1036442830,-98.2,1.957,48.68,31996,32778,32182,-0.42682928,33.536587,46.646343,32708,32487,31342,1.47,1.29,-0.3,3.0,1.0,2.0,3.0
964868688,707,2020-07-28/964868688s707ms.jpg,964868688s707ms.jpg,617,30077,34173,34154,-0.68652344,-0.66503906,1.328125,-6.732495092876,-6.521805297748999,13.02445703125,430515607.0,-1036442650,-98.39999999999998,2.153,47.32,32682,32676,32656,5.792683,4.634146,4.8170733,32715,32496,31339,1.58,1.45,-0.31,3.0,1.0,2.0,3.0
964868688,707,2020-07-28/964868688s707ms.jpg,964868688s707ms.jpg,920,29666,33219,33582,-0.22070312,-0.3857422,1.5288086,-2.164358251748,-3.78283874563,14.99249085719,430516066.0,-1036441708,-97.60000000000002,2.176,51.22,33135,32950,32908,-10.914634,-10.731708,-22.804878,32728,32483,31333,1.69,1.36,-0.3,3.0,1.0,2.0,3.0
964868688,707,2020-07-28/964868688s707ms.jpg,964868688s707ms.jpg,910,28303,33391,33285,-0.3046875,-0.24072266,2.194336,-2.987963671875,-2.360682873689,21.5190851344,430516190.0,-1036441688,-98.2,2.275,50.29,33158,33029,32980,-15.731708,-15.121951,-24.207317,32726,32474,31333,1.75,1.45,-0.3,3.0,1.0,2.0,3.0
964868688,707,2020-07-28/964868688s707ms.jpg,964868688s707ms.jpg,900,29447,33226,32395,-0.2241211,0.19384766,1.6357422,-2.1978771853150003,1.900996154939,16.041151245629994,430516315.0,-1036441669,-98.8,2.297,49.17,33158,32960,33007,-11.52439,-16.768293,-24.207317,32725,32472,31334,1.73,1.5,-0.31,3.0,1.0,2.0,3.0
964868688,707,2020-07-28/964868688s707ms.jpg,964868688s707ms.jpg,807,37034,32667,33594,0.048828125,-0.39160156,-2.0688477,0.47884033203125,-3.840299438374,-20.288465297205,430516165.0,-1036441907,-99.0,2.379,46.24,32041,32280,32923,29.939024,-11.646341,43.902440000000006,32714,32439,31347,1.71,1.64,-0.31,3.0,1.0,2.0,3.0
964868688,707,2020-07-28/964868688s707ms.jpg,964868688s707ms.jpg,880,33054,33094,31942,-0.15966797,0.41503906,-0.12548828,-1.5658078980005,4.070142797749,-1.2306196410619998,430516368.0,-1036441692,-99.2,2.316,47.81,33219,33029,33124,-15.731708,-23.90244,-27.926828000000004,32719,32450,31341,1.71,1.55,-0.31,3.0,1.0,2.0,3.0
964868688,707,2020-07-28/964868688s707ms.jpg,964868688s707ms.jpg,475,28877,32481,32511,0.13964844,0.13720703,1.9140625,1.3694833741260002,1.3455413207495002,18.770541015625,430515276.0,-1036443026,-98.0,1.983,54.59,33148,32988,32656,-13.231708,4.634146,-23.59756,32714,32508,31330,1.61,1.14,-0.31,3.0,1.0,2.0,3.0
964868688,707,2020-07-28/964868688s707ms.jpg,964868688s707ms.jpg,193,30136,32933,31690,-0.08105469,0.53808594,1.2993164,-0.7948749756885,5.276820483501,12.74194117406,430514706.0,-1036443868,-97.2,2.164,55.32,30802,32947,31840,-10.731708,54.390244,119.45122,32719,32516,31333,1.77,1.23,-0.31,3.0,1.0,2.0,3.0
964868688,707,2020-07-28/964868688s707ms.jpg,964868688s707ms.jpg,183,28836,32583,33533,0.08984375,-0.3618164,1.934082,0.8810662109374999,-3.5482067990599995,18.9668652453,430514699.0,-1036443905,-97.2,2.1630000000000003,54.5,30864,33431,32414,-40.243904,19.390244,115.67073,32715,32504,31335,1.76,1.25,-0.31,3.0,1.0,2.0,3.0
964868688,707,2020-07-28/964868688s707ms.jpg,964868688s707ms.jpg,173,24853,31997,32913,0.37597656,-0.05908203,3.8789062000000007,3.687070532124,-0.5793967894995,38.03907548623,430514696.0,-1036443934,-97.2,2.158,53.88,30967,33504,32939,-44.69512,-12.621951,109.39024,32711,32495,31336,1.74,1.27,-0.31,3.0,1.0,2.0,3.0
964868688,707,2020-07-28/964868688s707ms.jpg,964868688s707ms.jpg,103,31096,32804,32598,-0.018066406,0.09472656,0.8305664,-0.1771709203998999,0.928950219624,8.14507398656,430514651.0,-1036444163,-97.0,2.171,45.69,32116,32166,31852,36.890244,53.658535,39.32927,32708,32542,31327,1.55,1.51,-0.31,3.0,1.0,2.0,3.0
964868688,707,2020-07-28/964868688s707ms.jpg,964868688s707ms.jpg,73,28549,32716,32614,0.024902344,0.08691406,2.0742188,0.2442085717876,0.852335766499,20.34113779502,430514645.0,-1036444230,-96.8,2.247,42.8,32349,32255,31804,31.463415,56.585365,25.121952,32707,32543,31319,1.52,1.64,-0.31,3.0,1.0,2.0,3.0
964868688,707,2020-07-28/964868688s707ms.jpg,964868688s707ms.jpg,20,32942,33538,32357,-0.37646484,0.21240234,-0.07080078,-3.691858923186,2.082955407561,-0.6943184691869999,430514590.0,-1036444364,-96.60000000000002,2.332,39.34,32581,32458,31614,19.085365,68.17073,10.97561,32702,32552,31317,1.47,1.8,-0.31,3.0,1.0,2.0,3.0
964868688,707,2020-07-28/964868688s707ms.jpg,964868688s707ms.jpg,0,28164,33048,34414,-0.13720703,-0.7919921999999999,2.262207,-1.3455413207495002,-7.766790308130001,22.184672276550003,430514559.0,-1036444404,-96.60000000000002,2.382,39.66,32725,32845,32345,-4.512194999999999,23.59756,2.195122,32698,32549,31317,1.51,1.83,-0.31,3.0,1.0,2.0,3.0
964868688,707,2020-07-28/964868688s707ms.jpg,964868688s707ms.jpg,445,31480,33981,31306,-0.59277344,0.72558594,0.6430664,-5.813121655376,7.115567358500999,6.30632711156,430515242.0,-1036443115,-98.0,2.041,56.56,33363,33378,32768,-37.012196,-2.195122,-36.707317,32712,32498,31333,1.7,1.12,-0.31,3.0,1.0,2.0,3.0
964868688,707,2020-07-28/964868688s707ms.jpg,964868688s707ms.jpg,425,28682,32197,35071,0.2783203,-1.112793,2.0092773,2.729389769995,-10.91277147345,19.704279234045,430515211.0,-1036443177,-98.0,2.073,57.79,33607,33084,33156,-19.085365,-25.853659,-51.585365,32708,32499,31338,1.75,1.1,-0.31,3.0,1.0,2.0,3.0
964868688,707,2020-07-28/964868688s707ms.jpg,964868688s707ms.jpg,415,30419,31969,34771,0.38964844,-0.9663086,1.1611328,3.821145874126,-9.47625023219,11.38682297312,430515190.0,-1036443198,-98.0,2.093,58.21,33559,32945,33217,-10.609756,-29.573172,-48.658535,32710,32506,31335,1.77,1.1,-0.31,3.0,1.0,2.0,3.0
964868688,707,2020-07-28/964868688s707ms.jpg,964868688s707ms.jpg,385,34120,32859,34672,-0.044921875,-0.91796875,-0.6459961,-0.44053310546875,-9.0021982421875,-6.335057654064999,430515140.0,-1036443276,-97.8,2.204,58.17,33192,32200,33015,34.817074,-17.256098,-26.280487,32706,32479,31343,1.87,1.16,-0.31,3.0,1.0,2.0,3.0
964868683,702,2020-07-28/964868683s702ms.jpg,964868683s702ms.jpg,659,35234,32878,33476,-0.05419922,-0.33398438,-1.1899414,-0.5315127808129999,-3.2752679201270003,-11.669338830309998,430506462.0,-1036455927,-85.19999999999997,2.056,20.71,31705,32895,32442,-7.560975599999999,17.682926000000002,64.39024,32738,32425,31327,0.72,1.92,-0.23,3.0,1.0,2.0,3.0
964868683,702,2020-07-28/964868683s702ms.jpg,964868683s702ms.jpg,689,26033,33100,31203,-0.16259766,0.7758789,3.3027344,-1.594538342439,7.608772814684999,32.388760303759994,430506531.0,-1036455896,-85.19999999999997,2.032,22.51,31640,33238,32701,-28.475609,1.8902439,68.35365999999999,32734,32393,31332,0.77,1.87,-0.23,3.0,1.0,2.0,3.0
964868683,702,2020-07-28/964868683s702ms.jpg,964868683s702ms.jpg,730,35815,33146,31761,-0.1850586,0.50341797,-1.4736328,-1.81480491969,4.9368438355005,-14.45140109812,430506650.0,-1036455845,-85.39999999999998,2.083,25.22,31671,32734,32510,2.2560976000000004,13.536585999999998,66.46342,32739,32396,31322,0.88,1.88,-0.23,3.0,1.0,2.0,3.0
964868683,702,2020-07-28/964868683s702ms.jpg,964868683s702ms.jpg,619,31204,32273,32214,0.24121094,0.28222656,0.77783203,2.365471264751,2.7676970946240003,7.6279264769995,430506356.0,-1036455962,-85.0,2.014,20.18,31767,32952,32332,-11.036586,24.390244,60.609756,32732,32415,31335,0.69,1.89,-0.22,3.0,1.0,2.0,3.0
964868683,702,2020-07-28/964868683s702ms.jpg,964868683s702ms.jpg,549,30576,33599,32802,-0.40625,-0.0048828125,1.0844726999999998,-3.9839515625,-0.047884033203125,10.635044203455,430506146.0,-1036456042,-84.80000000000003,1.977,18.01,32537,32940,32336,-10.304878,24.146341,13.658537,32728,32431,31337,0.61,1.87,-0.22,3.0,1.0,2.0,3.0
964868683,702,2020-07-28/964868683s702ms.jpg,964868683s702ms.jpg,539,30164,33797,33064,-0.5029297,-0.1328125,1.2856445,-4.932055542505,-1.302445703125,12.607865635925,430506119.0,-1036456049,-84.80000000000003,1.969,18.14,32542,32991,32402,-13.414634,20.121952,13.353659,32731,32439,31333,0.61,1.87,-0.22,3.0,1.0,2.0,3.0
964868683,702,2020-07-28/964868683s702ms.jpg,964868683s702ms.jpg,740,34692,33333,32437,-0.2763672,0.17333984,-0.92529297,-2.71023640188,1.699883141936,-9.0740243042505,430506677.0,-1036455830,-85.39999999999998,2.094,26.01,31657,32886,32638,-7.012194999999999,5.731707,67.31707,32737,32382,31325,0.91,1.88,-0.23,3.0,1.0,2.0,3.0
964868683,702,2020-07-28/964868683s702ms.jpg,964868683s702ms.jpg,970,31121,31443,35265,0.6464844,-1.2075195,0.8183594,6.339846241259999,-11.841721104675,8.025364210009997,430507180.0,-1036455739,-85.80000000000003,1.774,18.79,31971,32163,33017,37.073170000000005,-17.378048,48.17073,32732,32367,31326,0.57,1.67,-0.23,3.0,1.0,2.0,3.0
964868683,702,2020-07-28/964868683s702ms.jpg,964868683s702ms.jpg,950,29172,32008,29693,0.37060547,1.5131836,1.7700195,3.634398132375501,14.83926195094,17.357961729675,430507146.0,-1036455739,-85.80000000000003,1.809,20.08,31884,32723,33482,2.9268293,-45.73171,53.47561,32739,32382,31320,0.62,1.69,-0.23,3.0,1.0,2.0,3.0
964868683,702,2020-07-28/964868683s702ms.jpg,964868683s702ms.jpg,760,29438,33288,31269,-0.25439453,0.74365234,1.6401366999999998,-2.4947581176245,7.292738220061,16.084246569055,430506731.0,-1036455821,-85.39999999999998,2.096,25.97,31610,33213,32660,-26.951220000000003,4.390244,70.18293,32735,32369,31325,0.91,1.88,-0.23,3.0,1.0,2.0,3.0
964868683,702,2020-07-28/964868683s702ms.jpg,964868683s702ms.jpg,840,29192,33237,32808,-0.22949219,-0.0078125,1.7602539,-2.2505495850635,-0.076614453125,17.262193908435,430506918.0,-1036455787,-85.60000000000002,1.991,23.24,31739,32469,32806,18.414635,-4.512194999999999,62.317074,32746,32394,31313,0.78,1.82,-0.23,3.0,1.0,2.0,3.0
964868683,702,2020-07-28/964868683s702ms.jpg,964868683s702ms.jpg,207,31659,33386,33669,-0.3022460999999999,-0.42822266,0.55566406,-2.964021716565,-4.199429748688999,5.449202953999,430505303.0,-1036456369,-84.0,2.102,32.54,32701,32866,32550,-5.792683,11.097561,3.6585367,32729,32510,31316,1.13,1.77,-0.21,3.0,1.0,2.0,3.0
964868683,702,2020-07-28/964868683s702ms.jpg,964868683s702ms.jpg,196,32280,33044,33431,-0.1352539,-0.31201172,0.2524414,-1.326387658435,-3.059789733938,2.47560445531,430505281.0,-1036456388,-84.0,2.096,32.04,32646,32838,32566,-4.0853660000000005,10.121951,7.012194999999999,32733,32520,31314,1.11,1.77,-0.21,3.0,1.0,2.0,3.0
964868683,702,2020-07-28/964868683s702ms.jpg,964868683s702ms.jpg,146,30974,33159,32805,-0.19140625,-0.0063476562,0.8901367,-1.8770541015625,-0.06224924267373,8.729259069054999,430505154.0,-1036456462,-83.80000000000003,2.107,32.08,32293,33012,32571,-14.695122,9.817073,28.536585,32723,32491,31321,1.11,1.78,-0.21,3.0,1.0,2.0,3.0
964868683,702,2020-07-28/964868683s702ms.jpg,964868683s702ms.jpg,14,30645,33488,32457,-0.35205078,0.16357422,1.0507812,-3.452438781687,1.604115124563,10.30464345498,430504472.0,-1036456925,-83.60000000000002,1.939,27.44,31632,32985,31884,-13.04878,51.707317,68.84146,32715,32541,31315,0.89,1.72,-0.2,3.0,1.0,2.0,3.0
964868683,702,2020-07-28/964868683s702ms.jpg,964868683s702ms.jpg,247,31400,33644,33314,-0.42822266,-0.2548828,0.6821289,-4.199429748688999,-2.4995464106200003,6.689399377185,430505387.0,-1036456303,-84.19999999999997,2.101,33.43,32712,32950,32497,-10.914634,14.329268,2.987805,32733,32508,31317,1.15,1.75,-0.21,3.0,1.0,2.0,3.0
964868683,702,2020-07-28/964868683s702ms.jpg,964868683s702ms.jpg,409,31043,32967,33540,-0.09765625,-0.36523438,0.8564453000000002,-0.9576806640625,-3.581725732627,8.398859301244999,430505760.0,-1036456152,-84.39999999999998,1.935,25.59,31916,32550,32541,13.47561,11.646341,51.52439,32729,32459,31332,0.83,1.74,-0.22,3.0,1.0,2.0,3.0
964868683,702,2020-07-28/964868683s702ms.jpg,964868683s702ms.jpg,317,31853,32980,33143,-0.104003906,-0.17138672,0.4609375,-1.0199299047749,-1.6807295776879998,4.520252734375,430505522.0,-1036456234,-84.19999999999997,1.94,32.14,32064,32492,32139,17.012196,36.158535,42.5,32732,32475,31324,1.03,1.64,-0.22,3.0,1.0,2.0,3.0
964868683,702,2020-07-28/964868683s702ms.jpg,964868683s702ms.jpg,297,29637,33309,33032,-0.26464844,-0.1171875,1.5429688,-2.595314624126,-1.149216796875,15.131354982519998,430505484.0,-1036456252,-84.19999999999997,1.986,32.63,32273,32867,32214,-5.8536587,31.585365000000003,29.756098,32730,32471,31322,1.07,1.67,-0.22,3.0,1.0,2.0,3.0
964868680,699,2020-07-28/964868680s699ms.jpg,964868680s699ms.jpg,705,30443,33067,34828,-0.14648438,-0.9941406,1.1494141000000002,-1.436521045127,-9.74918891499,11.271901783765,430498427.0,-1036459174,-81.19999999999997,1.357,56.27,31294,32978,32885,-12.621951,-9.329268,89.45121999999999,32736,32347,31318,1.12,0.75,-0.12,3.0,1.0,2.0,3.0
964868680,699,2020-07-28/964868680s699ms.jpg,964868680s699ms.jpg,664,30750,34078,32630,-0.6401366999999999,0.07910156,0.9995117,-6.277596569055,0.7757213133740001,9.801861412805,430498344.0,-1036459184,-81.19999999999997,1.375,56.27,31234,32838,32919,-4.0853660000000005,-11.402439,93.10976,32738,32361,31318,1.14,0.76,-0.12,3.0,1.0,2.0,3.0
964868680,699,2020-07-28/964868680s699ms.jpg,964868680s699ms.jpg,532,31389,32938,32660,-0.083496094,0.064453125,0.6875,-0.8188169702250999,0.63206923828125,6.742071875,430498107.0,-1036459288,-81.0,1.403,56.27,31969,32399,32892,22.682926,-9.756098,48.292683,32743,32389,31316,1.16,0.77,-0.12,3.0,1.0,2.0,3.0
964868680,699,2020-07-28/964868680s699ms.jpg,964868680s699ms.jpg,976,30613,32830,33473,-0.030761719,-0.33251953,1.0664062,-0.30166941163135,-3.2609026488745,10.45787236123,430498904.0,-1036459189,-81.0,1.348,56.27,33967,32672,33895,6.0365853,-70.914635,-73.53658,32728,32409,31336,1.12,0.74,-0.14,3.0,1.0,2.0,3.0
964868680,699,2020-07-28/964868680s699ms.jpg,964868680s699ms.jpg,906,29913,31838,32750,0.45361328,0.020507812,1.4082031000000002,4.448426672311999,0.2011129345497999,13.809754930614998,430498807.0,-1036459207,-81.0,1.392,56.27,32918,32248,33902,31.890244,-71.34146,-9.573171,32738,32397,31322,1.15,0.77,-0.14,3.0,1.0,2.0,3.0
964868680,699,2020-07-28/964868680s699ms.jpg,964868680s699ms.jpg,895,31309,31576,33563,0.58154297,-0.37646484,0.7265625,5.702988366750501,-3.691858923186,7.125144140624999,430498798.0,-1036459211,-81.0,1.388,56.27,32780,32236,33914,32.621952,-72.07316999999999,-1.1585366,32739,32399,31320,1.15,0.77,-0.14,3.0,1.0,2.0,3.0
964868680,699,2020-07-28/964868680s699ms.jpg,964868680s699ms.jpg,855,30727,32517,32864,0.12207031,-0.03515625,1.0107422,1.1971008055615,-0.3447650390625,9.911994995629998,430498734.0,-1036459218,-81.19999999999997,1.393,56.27,32053,32277,33543,30.121952,-49.451218,43.17073,32733,32354,31323,1.15,0.77,-0.13,3.0,1.0,2.0,3.0
964868680,699,2020-07-28/964868680s699ms.jpg,964868680s699ms.jpg,198,32688,32111,31912,0.3203125,0.4296875,0.0532226559999999,3.141192578125,4.213794921875,0.5219359594624,430497668.0,-1036459818,-80.80000000000003,1.217,56.27,32413,32676,32752,5.792683,-1.2195122,21.219513,32752,32407,31305,1.01,0.67,-0.11,3.0,1.0,2.0,3.0
964868680,699,2020-07-28/964868680s699ms.jpg,964868680s699ms.jpg,127,35342,32288,34129,0.23388672,-0.65283203,-1.2426758,2.293645202688,-6.402095226999498,-12.18648663407,430497628.0,-1036459966,-80.60000000000002,1.155,56.27,32275,32269,32915,30.609756,-11.158537,29.634146,32755,32420,31304,0.96,0.64,-0.11,3.0,1.0,2.0,3.0
964868680,699,2020-07-28/964868680s699ms.jpg,964868680s699ms.jpg,107,31621,32049,34572,0.35058594,-0.8691405999999999,0.57421875,3.4380736085009995,-8.52335766499,5.6311623046875,430497612.0,-1036460006,-80.60000000000002,1.147,56.27,32182,32250,32924,31.768293,-11.707317,35.30488,32749,32397,31309,0.95,0.63,-0.12,3.0,1.0,2.0,3.0
964868680,699,2020-07-28/964868680s699ms.jpg,964868680s699ms.jpg,37,30613,32762,32148,0.0024414061999999,0.31445312,1.0664062,0.0239420161112299,3.083731689248,10.45787236123,430497524.0,-1036460171,-80.60000000000002,1.027,56.27,32189,32415,32903,21.707317,-10.426829,34.878048,32750,32386,31303,0.85,0.57,-0.12,3.0,1.0,2.0,3.0
964868680,699,2020-07-28/964868680s699ms.jpg,964868680s699ms.jpg,27,32088,33206,33303,-0.21435547,-0.24951172,0.3461914,-2.1021090698755,-2.446874108938,3.39497789281,430497513.0,-1036460176,-80.60000000000002,1.035,56.27,32178,32365,32913,24.756098,-11.036586,35.548782,32750,32385,31303,0.86,0.57,-0.12,3.0,1.0,2.0,3.0
964868680,699,2020-07-28/964868680s699ms.jpg,964868680s699ms.jpg,248,30244,33140,33329,-0.1821289,-0.26220703,1.246582,-1.7860743771849998,-2.5713725707495,12.2247933703,430497688.0,-1036459719,-80.80000000000003,1.253,56.27,32632,32676,33105,5.792683,-22.743902,7.865854,32757,32416,31304,1.04,0.69,-0.11,3.0,1.0,2.0,3.0
964868680,699,2020-07-28/964868680s699ms.jpg,964868680s699ms.jpg,441,29252,32601,32838,0.08105469,-0.022460938,1.730957,0.7948749756885,-0.2202665576377,16.97488946405,430497908.0,-1036459445,-81.0,1.342,56.27,32151,32255,33186,31.463415,-27.682926,37.19512,32741,32381,31316,1.11,0.74,-0.11,3.0,1.0,2.0,3.0
964868680,699,2020-07-28/964868680s699ms.jpg,964868680s699ms.jpg,411,32871,32262,35117,0.24658203,-1.1352539,-0.036132812,2.4181436644995,-11.133037658435,-0.3543418407998,430497829.0,-1036459484,-81.0,1.3259999999999998,56.27,31983,32227,32478,33.17073,15.487804,47.439026,32747,32395,31310,1.1,0.73,-0.11,3.0,1.0,2.0,3.0
964868680,699,2020-07-28/964868680s699ms.jpg,964868680s699ms.jpg,401,31092,32097,32352,0.32714844,0.21484375,0.83251953,3.208230249126,2.1068974609375,8.1642276488745,430497821.0,-1036459498,-81.0,1.311,56.27,31989,32417,32566,21.585365,10.121951,47.073170000000005,32744,32381,31312,1.09,0.72,-0.11,3.0,1.0,2.0,3.0
964868680,699,2020-07-28/964868680s699ms.jpg,964868680s699ms.jpg,391,29395,32485,31132,0.13769531,0.8105469,1.6611328,1.3503297118115,7.948749756884999,16.29014797312,430497811.0,-1036459512,-81.0,1.2919999999999998,56.27,32014,32680,32631,5.5487804,6.1585364,45.548782,32744,32380,31313,1.07,0.71,-0.11,3.0,1.0,2.0,3.0
964868680,699,2020-07-28/964868680s699ms.jpg,964868680s699ms.jpg,309,29648,32989,32059,-0.10839844,0.35791016,1.5375976999999998,-1.0630255616259998,3.509899670564,15.078682484705,430497722.0,-1036459630,-80.80000000000003,1.26,56.27,32453,32773,32947,-0.12195122,-13.109756,18.780487,32748,32394,31311,1.04,0.69,-0.11,3.0,1.0,2.0,3.0
964868680,699,2020-07-28/964868680s699ms.jpg,964868680s699ms.jpg,299,29712,32913,32232,-0.07128906,0.2734375,1.5063476999999998,-0.6991068602489999,2.681505859375,14.772224672205,430497713.0,-1036459645,-80.80000000000003,1.261,56.27,32440,32746,32890,1.5243902,-9.634147,19.573172,32747,32390,31311,1.04,0.7,-0.11,3.0,1.0,2.0,3.0
964868680,699,2020-07-28/964868680s699ms.jpg,964868680s699ms.jpg,369,29179,32965,32149,-0.09667969,0.31396484,1.7666016,-0.9481038819385,3.078943298186,17.32444358064,430497789.0,-1036459550,-81.0,1.261,56.27,32094,32965,32853,-11.829268,-7.378049000000001,40.67073,32748,32392,31307,1.04,0.7,-0.11,3.0,1.0,2.0,3.0
964868698,717,2020-07-28/964868698s717ms.jpg,964868698s717ms.jpg,451,30943,33200,34829,-0.21142578,-0.9946289,0.90527344,-2.073378625437,-9.753977502185,8.877699780376,430499784.0,-1036424578,-8.800000000000011,0.0,101.91,32350,33031,32332,-15.853659,24.390244,25.060976,32736,32542,31271,0.0,0.0,0.0,3.0,1.0,2.0,3.0
964868698,717,2020-07-28/964868698s717ms.jpg,964868698s717ms.jpg,431,30961,32502,33600,0.12939453,-0.39453125,0.8964844000000001,1.2689268676245,-3.8690298828125,8.791508741260001,430499783.0,-1036424578,-8.800000000000011,0.0,101.91,32396,32925,32332,-9.390244,24.390244,22.256098,32736,32558,31271,0.0,0.0,0.0,3.0,1.0,2.0,3.0
964868698,717,2020-07-28/964868698s717ms.jpg,964868698s717ms.jpg,381,28689,33072,32294,-0.14892578,0.24316406,2.0058594,-1.460463000437,2.384624828999,19.67076108501,430499782.0,-1036424580,-8.800000000000011,0.0,101.91,32626,33271,32245,-30.487804,29.695122,8.231708,32736,32585,31265,0.0,0.0,0.0,3.0,1.0,2.0,3.0
964868698,717,2020-07-28/964868698s717ms.jpg,964868698s717ms.jpg,369,28504,32923,33213,-0.076171875,-0.2055663999999999,2.0961914,-0.74699091796875,-2.01591773656,20.55661539281,430499782.0,-1036424580,-8.800000000000011,0.0,101.91,32655,33333,32273,-34.26829,27.987804,6.4634147,32738,32595,31262,0.0,0.0,0.0,3.0,1.0,2.0,3.0
964868698,717,2020-07-28/964868698s717ms.jpg,964868698s717ms.jpg,501,33292,32283,35760,0.23632812,-1.4492188,-0.24169922,2.317587157998,-14.21198154502,-2.370259655813,430499785.0,-1036424577,-8.800000000000011,0.0,101.91,32433,32689,32403,5.0,20.060976,20.0,32740,32542,31274,0.0,0.0,0.0,3.0,1.0,2.0,3.0
964868698,717,2020-07-28/964868698s717ms.jpg,964868698s717ms.jpg,631,28097,33303,33384,-0.26171875,-0.2890625,2.2949219,-2.5665841796875,-2.834734765625,22.505495850635,430499786.0,-1036424570,-8.800000000000011,0.0,101.91,31884,32903,32272,-8.04878,28.04878,53.47561,32746,32497,31286,0.0,0.0,0.0,3.0,1.0,2.0,3.0
964868698,717,2020-07-28/964868698s717ms.jpg,964868698s717ms.jpg,621,27002,33323,32652,-0.27148438,0.068359375,2.8295898,-2.662352295127,0.6703764648437499,27.74879681217,430499787.0,-1036424571,-8.800000000000011,0.0,101.91,32202,33146,32236,-22.865854,30.243902,34.085365,32747,32506,31281,0.0,0.0,0.0,3.0,1.0,2.0,3.0
964868698,717,2020-07-28/964868698s717ms.jpg,964868698s717ms.jpg,601,32437,33054,32734,-0.14013672,0.028320312,0.17578125,-1.374271765188,0.2777273876748,1.7238251953125,430499789.0,-1036424572,-8.800000000000011,0.0,101.91,32372,32849,32469,-4.756098000000001,16.036585000000002,23.719513,32750,32530,31278,0.0,0.0,0.0,3.0,1.0,2.0,3.0
964868698,717,2020-07-28/964868698s717ms.jpg,964868698s717ms.jpg,175,31359,32516,33783,0.122558594,-0.48388672,0.70214844,1.2018892358501,-4.745307702688001,6.885723999125999,430499788.0,-1036424592,-8.800000000000011,0.0,101.91,33091,32645,32722,7.6829267,0.6097561,-20.121952,32723,32581,31283,0.0,0.0,0.0,3.0,1.0,2.0,3.0
964868698,717,2020-07-28/964868698s717ms.jpg,964868698s717ms.jpg,4,29795,33240,31153,-0.23095703,0.80029297,1.4658203,-2.2649147582495,7.848193054250499,14.374786644995,430499789.0,-1036424607,-8.800000000000011,0.0,101.91,32681,32891,32808,-7.3170733,-4.634146,4.878049,32715,32546,31292,0.0,0.0,0.0,3.0,1.0,2.0,3.0
964868698,717,2020-07-28/964868698s717ms.jpg,964868698s717ms.jpg,14,30924,32936,32609,-0.08251953,0.08935547,0.9145508,-0.8092401488744999,0.8762778198755,8.96867960282,430499790.0,-1036424606,-8.800000000000011,0.0,101.91,32760,32806,32911,-2.1341465,-10.914634,0.06097561,32715,32543,31291,0.0,0.0,0.0,3.0,1.0,2.0,3.0
964868698,717,2020-07-28/964868698s717ms.jpg,964868698s717ms.jpg,55,28592,33292,30729,-0.25634766,1.0073242,2.0532227,-2.513911779939,9.87847586593,20.135236390955,430499789.0,-1036424600,-8.800000000000011,0.0,101.91,32952,32690,32941,4.939024400000001,-12.743902,-11.646341,32716,32558,31286,0.0,0.0,0.0,3.0,1.0,2.0,3.0
964868698,717,2020-07-28/964868698s717ms.jpg,964868698s717ms.jpg,255,27960,33612,32951,-0.41259766,-0.07763672,2.3618164,-4.046200842438999,-0.761356140188,23.16150679906,430499785.0,-1036424585,-8.800000000000011,0.0,101.91,33197,32339,32621,26.341463,6.768292999999999,-26.585365000000003,32720,32559,31282,0.0,0.0,0.0,3.0,1.0,2.0,3.0
964868628,714,2020-07-28/964868628s714ms.jpg,964868628s714ms.jpg,689,30799,32614,33827,0.07470703,-0.5053711,0.97558594,0.7326256957494999,-4.955997497814999,9.567229858501,430423742.0,-1036544040,-66.19999999999999,1.509,31.86,32956,32468,32462,18.475609,16.463414999999998,-11.890244,32680,32539,31347,0.79,1.28,-0.3,1.0,0.0,0.0,0.0
964868628,714,2020-07-28/964868628s714ms.jpg,964868628s714ms.jpg,739,30240,33050,33284,-0.1381836,-0.24023438,1.2485351999999998,-1.3551182009399998,-2.355894482627,12.24394771908,430423806.0,-1036543994,-66.39999999999998,1.4,34.31,32659,32587,32535,11.219512,12.012196,6.219512,32676,32524,31351,0.78,1.15,-0.3,1.0,0.0,0.0,0.0
964868628,714,2020-07-28/964868628s714ms.jpg,964868628s714ms.jpg,589,30723,33372,33452,-0.29541016,-0.32226562,1.0126953,-2.8969840455639995,-3.160346142373,9.931148363745,430423525.0,-1036544176,-65.80000000000001,1.579,31.08,33321,32649,32597,7.439024400000001,8.231708,-34.146343,32680,32551,31344,0.81,1.35,-0.31,1.0,0.0,0.0,0.0
964868628,714,2020-07-28/964868628s714ms.jpg,964868628s714ms.jpg,569,31266,33427,32978,-0.32226562,-0.09082031,0.7475586,-3.160346142373,-0.8906429930615001,7.3310455446899985,430423449.0,-1036544226,-65.80000000000001,1.571,32.04,33308,32606,32532,10.060976,12.195122,-33.353657,32685,32568,31340,0.83,1.33,-0.31,1.0,0.0,0.0,0.0
964868628,714,2020-07-28/964868628s714ms.jpg,964868628s714ms.jpg,786,31055,33054,33403,-0.14013672,-0.29833984,0.85058594,-1.374271765188,-2.925714391936,8.341398608500999,430423881.0,-1036543931,-66.39999999999998,1.349,35.24,32634,32463,32497,18.780487,14.329268,7.743902,32679,32541,31350,0.77,1.1,-0.3,1.0,0.0,0.0,0.0
964868628,714,2020-07-28/964868628s714ms.jpg,964868628s714ms.jpg,988,30422,32751,33541,0.0078125,-0.36572266,1.159668,0.076614453125,-3.586514123689,11.372458192199998,430424253.0,-1036543510,-67.0,1.288,51.8,32786,32648,32848,7.5,-7.0731707,-1.5243902,32677,32518,31359,1.01,0.79,-0.3,1.0,0.0,0.0,0.0
964868628,714,2020-07-28/964868628s714ms.jpg,964868628s714ms.jpg,918,29419,32909,33484,-0.06933594,-0.33789062,1.6494141,-0.679953296001,-3.313575048623,16.175226783764998,430424150.0,-1036543649,-66.80000000000001,1.231,46.72,32420,32896,32710,-7.621950999999999,1.3414634,20.792683,32678,32516,31357,0.89,0.84,-0.3,1.0,0.0,0.0,0.0
964868628,714,2020-07-28/964868628s714ms.jpg,964868628s714ms.jpg,5,31209,32623,32916,0.0703125,-0.060546875,0.7753906,0.689530078125,-0.59376201171875,7.60398422749,430421886.0,-1036545215,-63.80000000000001,1.456,40.86,33267,32633,33017,8.414634,-17.378048,-30.853659000000004,32697,32472,31358,0.95,1.1,-0.33,1.0,0.0,0.0,0.0
964868628,714,2020-07-28/964868628s714ms.jpg,964868628s714ms.jpg,45,30339,32392,33190,0.18310547,-0.19433594,1.2001953,1.7956512573755,-1.905784546001,11.769895238745,430421943.0,-1036545155,-64.0,1.464,43.52,33346,32552,33070,13.353659,-20.609756,-35.67073,32701,32511,31348,1.0,1.06,-0.33,1.0,0.0,0.0,0.0
964868628,714,2020-07-28/964868628s714ms.jpg,964868628s714ms.jpg,238,30916,33373,33378,-0.29589844,-0.2861328,0.91845703,-2.901772436626,-2.8060042231200004,9.0069866332495,430422409.0,-1036544840,-64.60000000000002,1.411,39.21,33390,32541,32858,14.02439,-7.6829267,-38.353657,32682,32517,31353,0.89,1.09,-0.31,1.0,0.0,0.0,0.0
964868628,714,2020-07-28/964868628s714ms.jpg,964868628s714ms.jpg,479,31151,33235,33761,-0.22851562,-0.47314453,0.80371094,-2.240972704873,-4.6399628051245,7.881711889750999,430423076.0,-1036544484,-65.39999999999998,1.495,33.46,33238,32599,32487,10.487804,14.939024,-29.085365000000003,32677,32529,31351,0.82,1.24,-0.31,1.0,0.0,0.0,0.0
964868628,714,2020-07-28/964868628s714ms.jpg,964868628s714ms.jpg,467,30884,33332,33662,-0.2758789,-0.4248047,0.93408203,-2.7054478146850003,-4.165911011255,9.1602155394995,430423038.0,-1036544511,-65.39999999999998,1.487,33.38,33229,32617,32492,9.390244,14.634147,-28.536585,32678,32531,31351,0.81,1.24,-0.31,1.0,0.0,0.0,0.0
964868628,714,2020-07-28/964868628s714ms.jpg,964868628s714ms.jpg,446,29486,33513,32766,-0.3642578,0.0126953125,1.6166992,-3.57214875437,0.124498486328125,15.85440320968,430422957.0,-1036544566,-65.39999999999998,1.463,33.28,33141,32649,32544,7.439024400000001,11.463414,-23.170732,32686,32555,31343,0.8,1.22,-0.31,1.0,0.0,0.0,0.0
964868628,714,2020-07-28/964868628s714ms.jpg,964868628s714ms.jpg,426,30693,33382,32892,-0.30029297,-0.048828125,1.0273438,-2.9448680542505,-0.47884033203125,10.07480107627,430422872.0,-1036544622,-65.19999999999999,1.446,32.59,33165,32681,32623,5.487805000000001,6.6463413000000005,-24.634146,32684,32549,31347,0.77,1.21,-0.31,1.0,0.0,0.0,0.0
964868628,714,2020-07-28/964868628s714ms.jpg,964868628s714ms.jpg,386,29301,33058,32529,-0.14208984,0.12841797,1.7070312,-1.393425329436,1.2593500855004998,16.74025751748,430422689.0,-1036544670,-65.19999999999999,1.47,36.11,33069,32799,32612,-1.7073171000000005,7.3170733,-18.780487,32685,32547,31345,0.86,1.18,-0.31,1.0,0.0,0.0,0.0
964868628,714,2020-07-28/964868628s714ms.jpg,964868628s714ms.jpg,416,31012,33505,32860,-0.36035156,-0.033203125,0.87158203,-3.533841625874,-0.32561142578125,8.547299914499499,430422827.0,-1036544640,-65.19999999999999,1.446,32.19,33193,32693,32661,4.756098000000001,4.3292685,-26.341463,32679,32528,31351,0.77,1.22,-0.31,1.0,0.0,0.0,0.0
964868628,714,2020-07-28/964868628s714ms.jpg,964868628s714ms.jpg,359,30261,33257,32657,-0.23925781,0.06591797,1.2382812,-2.3463176024365,0.6464344605005,12.14339032998,430422649.0,-1036544662,-65.0,1.486,39.98,33100,32738,32686,2.012195,2.804878,-20.670732,32684,32542,31347,0.95,1.13,-0.3,1.0,0.0,0.0,0.0
964868628,714,2020-07-28/964868628s714ms.jpg,964868628s714ms.jpg,288,30048,33603,32804,-0.40820312,-0.005859375,1.3422851999999998,-4.003105126747999,-0.05746083984375,13.16332115658,430422520.0,-1036544764,-64.80000000000001,1.4,39.74,33221,32602,32699,10.304878,2.012195,-28.04878,32691,32559,31344,0.89,1.07,-0.31,1.0,0.0,0.0,0.0
964868628,714,2020-07-28/964868628s714ms.jpg,964868628s714ms.jpg,298,30274,33522,33046,-0.36865234,-0.12402344,1.2319336,-3.615244470061,-1.216254467876,12.081141638439998,430422536.0,-1036544751,-64.80000000000001,1.401,40.13,33172,32601,32706,10.365853,1.5853659,-25.060976,32693,32574,31341,0.9,1.07,-0.32,1.0,0.0,0.0,0.0
964868628,714,2020-07-28/964868628s714ms.jpg,964868628s714ms.jpg,278,30227,33608,32967,-0.41064453,-0.08544922,1.2548828,-4.0270471801245,-0.8379705933130001,12.30619641062,430422505.0,-1036544778,-64.80000000000001,1.403,39.25,33245,32612,32717,9.695122,0.91463417,-29.512196000000003,32687,32544,31348,0.88,1.08,-0.31,1.0,0.0,0.0,0.0
964868665,718,2020-07-28/964868665s718ms.jpg,964868665s718ms.jpg,697,30075,32971,32282,-0.099609375,0.24902344,1.3291016000000002,-0.97683427734375,2.442085717876,13.03403420564,430491140.0,-1036484804,-145.0,5.837999999999999,40.32,33037,32759,32591,0.73170733,8.597561,-16.829268,32695,32629,31225,3.77,4.45,-0.32,2.0,1.0,1.0,2.0
964868665,718,2020-07-28/964868665s718ms.jpg,964868665s718ms.jpg,645,31329,33087,33316,-0.15625,-0.25585938,0.7167969,-1.5322890625,-2.509123388877,7.029376319384999,430491072.0,-1036485029,-144.8,5.899,39.11,33000,32613,32565,9.634147,10.182927,-14.573171,32699,32644,31221,3.72,4.57,-0.31,2.0,1.0,1.0,2.0
964868665,718,2020-07-28/964868665s718ms.jpg,964868665s718ms.jpg,575,30065,33101,32894,-0.16308594,-0.049804688,1.3339843999999998,-1.5993267335010002,-0.4884171435752,13.081918116260002,430490844.0,-1036485414,-144.60000000000005,5.941,38.06,33137,32749,32654,1.3414634,4.756098000000001,-22.926828,32695,32641,31228,3.66,4.67,-0.32,2.0,1.0,1.0,2.0
964868665,718,2020-07-28/964868665s718ms.jpg,964868665s718ms.jpg,563,28322,33009,32587,-0.11816406,0.100097656,2.1850586,-1.158793578999,0.9816226782124,21.42810491969,430490804.0,-1036485477,-144.60000000000005,5.956,37.77,33152,32825,32713,-3.292683,1.1585366,-23.841463,32691,32632,31230,3.64,4.7,-0.32,2.0,1.0,1.0,2.0
964868665,718,2020-07-28/964868665s718ms.jpg,964868665s718ms.jpg,998,30408,32401,32672,0.17871094,0.05859375,1.1665039,1.752555639751,0.5746083984375,11.439495470935,430491624.0,-1036483885,-146.0,5.013,16.89,32775,32689,32548,5.0,11.219512,-0.85365856,32702,32603,31227,1.45,4.79,-0.3,2.0,1.0,1.0,2.0
964868665,718,2020-07-28/964868665s718ms.jpg,964868665s718ms.jpg,777,31506,31919,33864,0.4140625,-0.5234375,0.6303711,4.060566015625,-5.133168359375,6.181828747815,430490925.0,-1036484651,-145.39999999999995,5.3660000000000005,36.89,33219,32394,32626,22.987804,6.4634147,-27.926828000000004,32700,32629,31217,3.22,4.29,-0.31,2.0,1.0,1.0,2.0
964868665,718,2020-07-28/964868665s718ms.jpg,964868665s718ms.jpg,988,30985,32600,32751,0.08154297,0.020019531,0.8847655999999999,0.7996633667505001,0.19632453368115,8.67658657124,430491576.0,-1036483924,-146.0,5.027,17.06,32789,32648,32524,7.5,12.682927,-1.7073171000000005,32704,32614,31223,1.47,4.8,-0.3,2.0,1.0,1.0,2.0
964868665,718,2020-07-28/964868665s718ms.jpg,964868665s718ms.jpg,917,31476,33207,33216,-0.21484375,-0.20703125,0.64501953,-2.1068974609375,-2.0302830078125,6.3254807738744985,430491277.0,-1036484196,-146.0,5.186,19.83,32876,32516,32556,15.54878,10.731708,-7.012194999999999,32696,32600,31225,1.75,4.87,-0.3,2.0,1.0,1.0,2.0
964868665,718,2020-07-28/964868665s718ms.jpg,964868665s718ms.jpg,827,30907,33394,33584,-0.30615234,-0.38671875,0.92285156,-3.002328845061,-3.7924154296875,9.050082250874,430491116.0,-1036484403,-145.60000000000005,5.35,32.64,33100,32664,32545,6.52439,11.402439,-20.670732,32707,32644,31212,2.88,4.5,-0.32,2.0,1.0,1.0,2.0
964868665,718,2020-07-28/964868665s718ms.jpg,964868665s718ms.jpg,817,30912,33417,32723,-0.3173828,0.033691406,0.92041016,-3.112462035620001,0.3303998266499,9.026140295564,430491022.0,-1036484480,-145.60000000000005,5.324,33.61,33018,32739,32544,1.9512196,11.463414,-15.670732,32701,32625,31216,2.94,4.43,-0.32,2.0,1.0,1.0,2.0
964868665,718,2020-07-28/964868665s718ms.jpg,964868665s718ms.jpg,483,28480,33439,32251,-0.328125,0.26416016,2.1079102,-3.21780703125,2.590526233064,20.67153756283,430490648.0,-1036485863,-144.39999999999995,6.144,33.99,33596,32671,32928,6.097561,-11.95122,-50.914635,32692,32637,31236,3.43,5.09,-0.33,2.0,1.0,1.0,2.0
964868665,718,2020-07-28/964868665s718ms.jpg,964868665s718ms.jpg,161,30964,32626,34099,0.068847656,-0.6381836,0.89501953,0.6751648657123999,-6.25844320094,8.777143273874499,430488835.0,-1036487659,-143.8,5.783,5.47,32460,32649,32876,7.439024400000001,-8.780488,18.353659,32718,32565,31268,0.55,5.75,-0.3,2.0,1.0,1.0,2.0
964868665,718,2020-07-28/964868665s718ms.jpg,964868665s718ms.jpg,81,30154,32938,32925,-0.083496094,-0.064941406,1.2905273000000002,-0.8188169702250999,-0.6368576391498999,12.655749546544998,430488301.0,-1036487935,-143.8,5.53,10.5,31818,33068,32475,-18.109756,15.670732,57.5,32727,32605,31253,1.0,5.43,-0.31,2.0,1.0,1.0,2.0
964868665,718,2020-07-28/964868665s718ms.jpg,964868665s718ms.jpg,31,32500,32921,32798,-0.07519531,-0.0029296875,0.14501953,-0.7374140868115,-0.028730419921875,1.4221557738745,430488074.0,-1036488101,-143.60000000000005,5.462000000000001,11.31,31780,32699,32197,4.390244,32.621952,59.817074,32714,32579,31260,1.07,5.35,-0.31,2.0,1.0,1.0,2.0
964868665,718,2020-07-28/964868665s718ms.jpg,964868665s718ms.jpg,21,32396,33172,33255,-0.1977539,-0.22607422,0.19580078,-1.939303283435,-2.217030749563,1.920149719187,430488032.0,-1036488117,-143.60000000000005,5.349,11.75,31829,32727,32183,2.682927,33.47561,56.82927,32715,32587,31255,1.08,5.23,-0.31,2.0,1.0,1.0,2.0
964868665,718,2020-07-28/964868665s718ms.jpg,964868665s718ms.jpg,221,22629,33184,30975,-0.20361328,0.88720703,4.9648438,-1.996764172312,8.700528820749499,48.68848545127,430489187.0,-1036487399,-143.8,5.715,7.44,32900,33221,33336,-27.439024,-36.82927,-8.475610000000001,32712,32578,31267,0.74,5.66,-0.31,2.0,1.0,1.0,2.0
964868665,718,2020-07-28/964868665s718ms.jpg,964868665s718ms.jpg,241,32425,31797,35405,0.4736327999999999,-1.2758789,0.18164062,4.64475109812,-12.512097814685,1.7812859861230002,430489286.0,-1036487326,-143.8,5.652,8.29,33012,33125,33041,-21.585365,-18.841463,-15.304878,32716,32599,31258,0.81,5.59,-0.31,2.0,1.0,1.0,2.0
964868665,718,2020-07-28/964868665s718ms.jpg,964868665s718ms.jpg,342,30385,32435,33133,0.16210938,-0.1665039,1.1777343999999998,1.589749951377,-1.632845470935,11.549629053760002,430489842.0,-1036486787,-144.0,5.507000000000001,18.97,33566,32632,33159,8.475610000000001,-26.036585,-49.085365,32711,32637,31245,1.79,5.2,-0.32,2.0,1.0,1.0,2.0
964868665,718,2020-07-28/964868665s718ms.jpg,964868665s718ms.jpg,322,32268,32663,32920,0.05078125,-0.0625,0.25830078,0.4979939453125,-0.612915625,2.533065344187,430489743.0,-1036486882,-144.0,5.49,16.86,33484,32658,33138,6.890244,-24.756098,-44.085365,32709,32617,31253,1.59,5.25,-0.32,2.0,1.0,1.0,2.0
964868665,718,2020-07-28/964868665s718ms.jpg,964868665s718ms.jpg,302,29224,32712,33117,0.026855469,-0.1586914,1.7446289,0.26336218506885,-1.5562310178100005,17.108965002185,430489640.0,-1036486979,-144.0,5.495,14.95,33332,32814,33308,-2.621951,-35.121952,-34.817074,32706,32594,31262,1.41,5.3,-0.31,2.0,1.0,1.0,2.0
964868578,697,2020-07-28/964868578s697ms.jpg,964868578s697ms.jpg,659,30031,32571,33144,0.095703125,-0.171875,1.3505858999999998,0.93852705078125,-1.68551796875,13.244723216235002,430432885.0,-1036560987,23.600000000000023,2.779,277.05,32989,32682,32891,5.4268293,-9.695122,-13.902439,32755,32555,31191,-2.75,0.34,-0.08,1.0,0.0,0.0,0.0
964868578,697,2020-07-28/964868578s697ms.jpg,964868578s697ms.jpg,721,30313,32241,31987,0.25683594,0.3930664,1.2128906000000002,2.5187001710009995,3.85466461156,11.894393602489998,430432730.0,-1036561320,23.399999999999977,2.773,273.26,33235,32718,32982,3.2317073,-15.243902,-28.90244,32746,32537,31194,-2.76,0.15,-0.09,1.0,0.0,0.0,0.0
964868578,697,2020-07-28/964868578s697ms.jpg,964868578s697ms.jpg,690,31607,32731,34179,0.017578125,-0.6772461,0.5810546999999999,0.17238251953125,-6.641515466564998,5.698200073754999,430432804.0,-1036561171,23.600000000000023,2.804,275.61,33180,32635,32862,8.292683,-7.9268293,-25.54878,32747,32523,31199,-2.79,0.27,-0.09,1.0,0.0,0.0,0.0
964868578,697,2020-07-28/964868578s697ms.jpg,964868578s697ms.jpg,710,31277,32286,32634,0.23486328,0.07714844,0.7421875,2.303221984812,0.7565677491259999,7.278373046874999,430432754.0,-1036561268,23.600000000000023,2.79,274.13,33257,32686,32921,5.1829267,-11.52439,-30.243902,32747,32534,31196,-2.78,0.2,-0.09,1.0,0.0,0.0,0.0
964868578,697,2020-07-28/964868578s697ms.jpg,964868578s697ms.jpg,568,30622,32938,33182,-0.083496094,-0.19042969,1.0620117,-0.8188169702250999,-1.8674773194385,10.414777037805,430433069.0,-1036560479,23.79999999999995,2.805,279.63,32474,32786,32709,-0.91463417,1.402439,17.5,32748,32526,31195,-2.76,0.46,-0.07,1.0,0.0,0.0,0.0
964868578,697,2020-07-28/964868578s697ms.jpg,964868578s697ms.jpg,558,30720,32897,33092,-0.06347656,-0.14648438,1.0141601999999998,-0.622492407124,-1.436521045127,9.94551412533,430433088.0,-1036560421,23.79999999999995,2.812,279.98,32433,32819,32729,-2.9268293,0.18292683,20.0,32747,32522,31197,-2.76,0.48,-0.07,1.0,0.0,0.0,0.0
964868578,697,2020-07-28/964868578s697ms.jpg,964868578s697ms.jpg,761,30637,32412,32787,0.17333984,0.0024414061999999,1.0546875,1.699883141936,0.0239420161112299,10.342951171875,430432594.0,-1036561475,23.399999999999977,2.623,268.1,33348,32743,32814,1.7073171000000005,-5.0,-35.792683000000004,32753,32551,31188,-2.62,-0.08,-0.09,1.0,0.0,0.0,0.0
964868578,697,2020-07-28/964868578s697ms.jpg,964868578s697ms.jpg,945,30305,33044,33427,-0.1352539,-0.3100585999999999,1.2167968999999998,-1.326387658435,-3.0406361696900004,11.932701319385,430431708.0,-1036562442,22.79999999999995,1.93,251.21,32831,32844,32669,-4.4512196,3.8414633,-4.268293,32753,32552,31179,-1.82,-0.62,-0.11,1.0,0.0,0.0,0.0
964868578,697,2020-07-28/964868578s697ms.jpg,964868578s697ms.jpg,905,31909,32630,33820,0.06689453,-0.5019531,0.43359375,0.6560112426245001,-4.922478368115,4.2521021484375,430431832.0,-1036562288,23.0,1.974,251.55,33361,32601,32765,10.365853,-2.012195,-36.585365,32747,32539,31183,-1.87,-0.62,-0.1,1.0,0.0,0.0,0.0
964868578,697,2020-07-28/964868578s697ms.jpg,964868578s697ms.jpg,855,30020,32607,33280,0.078125,-0.23828125,1.355957,0.7661445312499999,-2.3367408203125,13.29739571405,430432080.0,-1036562017,23.20000000000005,2.0980000000000003,255.92,33348,32810,32671,-2.3780490000000003,3.719512200000001,-35.792683000000004,32755,32567,31175,-2.03,-0.51,-0.1,1.0,0.0,0.0,0.0
964868578,697,2020-07-28/964868578s697ms.jpg,964868578s697ms.jpg,825,30456,32474,32627,0.1430664,0.080566406,1.1430664,1.4030021115600002,0.7900865453998999,11.20965211156,430432331.0,-1036561734,23.20000000000005,2.248,260.32,33446,32767,32878,0.24390244,-8.902439,-41.76829,32747,32536,31189,-2.21,-0.37,-0.09,1.0,0.0,0.0,0.0
964868578,697,2020-07-28/964868578s697ms.jpg,964868578s697ms.jpg,805,31038,33058,33270,-0.14208984,-0.23339844,0.8588867,-1.393425329436,-2.288856811626,8.422801256555001,430432426.0,-1036561649,23.399999999999977,2.372,262.96,33433,32769,32811,0.12195122,-4.8170733,-40.97561,32746,32533,31190,-2.35,-0.29,-0.09,1.0,0.0,0.0,0.0
964868578,697,2020-07-28/964868578s697ms.jpg,964868578s697ms.jpg,158,30792,33148,32967,-0.18603516,-0.08544922,0.9790039,-1.824381701814,-0.8379705933130001,9.600748595935,430434211.0,-1036558652,24.600000000000023,1.453,284.49,32879,32677,32815,5.731707,-5.060975599999999,-7.1951220000000005,32753,32547,31178,-1.4,0.36,-0.05,1.0,0.0,0.0,0.0
964868578,697,2020-07-28/964868578s697ms.jpg,964868578s697ms.jpg,76,30575,32733,33188,0.016601562,-0.19335938,1.0849608999999998,0.1628057079873,-1.896207763877,10.639831809985,430434554.0,-1036558386,24.79999999999995,1.516,286.51,33313,32705,32880,4.02439,-9.02439,-33.658535,32751,32545,31181,-1.45,0.43,-0.04,1.0,0.0,0.0,0.0
964868578,697,2020-07-28/964868578s697ms.jpg,964868578s697ms.jpg,55,30778,32361,33090,0.19824219,-0.14550781,0.98583984,1.9440917725635,-1.4269441649364998,9.667786266936,430434647.0,-1036558311,24.79999999999995,1.491,288.45,33375,32686,32866,5.1829267,-8.170732000000001,-37.439026,32747,32524,31186,-1.41,0.47,-0.04,1.0,0.0,0.0,0.0
964868578,697,2020-07-28/964868578s697ms.jpg,964868578s697ms.jpg,25,31125,32604,33616,0.079589844,-0.40234375,0.81640625,0.7805097436626001,-3.9456443359375,8.0062103515625,430434824.0,-1036558220,24.79999999999995,1.431,291.0,33373,32756,32912,0.91463417,-10.97561,-37.317074,32752,32544,31180,-1.33,0.51,-0.04,1.0,0.0,0.0,0.0
964868578,697,2020-07-28/964868578s697ms.jpg,964868578s697ms.jpg,15,30322,32593,33077,0.08496094,-0.13916016,1.2084961,0.8331822022509999,-1.364694983064,11.851298279065,430434863.0,-1036558195,24.79999999999995,1.403,291.35,33365,32760,32882,0.6707316999999999,-9.146341,-36.82927,32754,32556,31180,-1.3,0.51,-0.04,1.0,0.0,0.0,0.0
964868578,697,2020-07-28/964868578s697ms.jpg,964868578s697ms.jpg,248,30887,32944,33322,-0.08642578,-0.25878906,0.9326171999999998,-0.8475473754369999,-2.537853735249,9.14585046438,430433954.0,-1036559023,24.399999999999977,1.91,286.99,32657,32761,32705,0.6097561,1.6463414,6.3414636,32756,32554,31176,-1.82,0.55,-0.06,1.0,0.0,0.0,0.0
964868578,697,2020-07-28/964868578s697ms.jpg,964868578s697ms.jpg,368,30674,33012,33162,-0.119628906,-0.18066406,1.0366211,-1.1731588110248998,-1.7717092039989997,10.165780310315,430433544.0,-1036559564,24.20000000000005,2.167,283.77,32308,32844,32723,-4.4512196,0.5487805,27.621952,32750,32534,31182,-2.1,0.51,-0.07,1.0,0.0,0.0,0.0
964868577,730,2020-07-28/964868577s730ms.jpg,964868577s730ms.jpg,672,30651,33009,33182,-0.11816406,-0.19042969,1.0478516,-1.158793578999,-1.8674773194385,10.275913893139998,430435724.0,-1036557080,25.600000000000023,1.036,307.43,32315,32804,32866,-2.012195,-8.170732000000001,27.195122,32757,32513,31191,-0.82,0.62,-0.04,1.0,0.0,0.0,0.0
964868577,730,2020-07-28/964868577s730ms.jpg,964868577s730ms.jpg,692,30630,33045,32973,-0.13574219,-0.088378906,1.0581055,-1.3311761475635,-0.8667009985248999,10.376470301575,430435731.0,-1036557116,25.600000000000023,1.043,306.97,32362,32780,32836,-0.5487805,-6.3414636,24.329268,32759,32523,31191,-0.83,0.62,-0.04,1.0,0.0,0.0,0.0
964868577,730,2020-07-28/964868577s730ms.jpg,964868577s730ms.jpg,582,31271,33226,33534,-0.2241211,-0.3623047,0.7451171999999999,-2.1978771853150003,-3.552995386255,7.30710358938,430435670.0,-1036556902,25.600000000000023,0.96,309.42,32292,32738,32926,2.012195,-11.829268,28.59756,32759,32509,31192,-0.74,0.6,-0.04,1.0,0.0,0.0,0.0
964868577,730,2020-07-28/964868577s730ms.jpg,964868577s730ms.jpg,572,31002,33227,33518,-0.22460938,-0.3544922,0.87646484,-2.202665576377,-3.47638093313,8.595183923186001,430435663.0,-1036556880,25.600000000000023,0.949,309.71,32259,32766,32887,0.30487806,-9.45122,30.609756,32758,32501,31191,-0.73,0.6,-0.04,1.0,0.0,0.0,0.0
964868577,730,2020-07-28/964868577s730ms.jpg,964868577s730ms.jpg,562,30860,33135,33556,-0.1796875,-0.37304688,0.9458008,-1.762132421875,-3.658340185752,9.27513741532,430435656.0,-1036556857,25.600000000000023,0.938,310.04,32224,32813,32858,-2.5609756,-7.6829267,32.743904,32756,32493,31192,-0.71,0.6,-0.04,1.0,0.0,0.0,0.0
964868577,730,2020-07-28/964868577s730ms.jpg,964868577s730ms.jpg,532,30498,32760,32811,0.0034179688,-0.009277344,1.1225586,0.03351882373252,-0.0909796655376,11.00853929469,430435634.0,-1036556798,25.600000000000023,0.901,310.81,32197,32804,32862,-2.012195,-7.9268293,34.390244,32764,32514,31184,-0.68,0.58,-0.04,1.0,0.0,0.0,0.0
964868577,730,2020-07-28/964868577s730ms.jpg,964868577s730ms.jpg,933,30754,32666,33123,0.0493164059999999,-0.1616211,0.9975586,0.4836287328999,-1.5849615603149998,9.78270804469,430435359.0,-1036557973,25.0,1.257,299.39,33406,32715,32995,3.4146342000000005,-16.036585000000002,-39.32927,32750,32521,31191,-1.09,0.61,-0.04,1.0,0.0,0.0,0.0
964868577,730,2020-07-28/964868577s730ms.jpg,964868577s730ms.jpg,903,30910,32638,33558,0.06298828,-0.37402344,0.9213867,0.6177040160619999,-3.667916967876,9.035716881555,430435789.0,-1036557860,25.20000000000005,1.262,304.72,33335,32762,33005,0.5487805,-16.646341,-35.0,32752,32529,31192,-1.03,0.71,-0.04,1.0,0.0,0.0,0.0
964868577,730,2020-07-28/964868577s730ms.jpg,964868577s730ms.jpg,813,30541,32564,33110,0.099121094,-0.15527344,1.1015625,0.9720458764751,-1.522712280376,10.802637890625,430435797.0,-1036557355,25.399999999999977,1.111,305.2,32787,32798,32976,-1.6463414,-14.878049,-1.5853659,32752,32516,31200,-0.9,0.64,-0.04,1.0,0.0,0.0,0.0
964868577,730,2020-07-28/964868577s730ms.jpg,964868577s730ms.jpg,502,30988,32909,33491,-0.06933594,-0.3413085999999999,0.8833008,-0.679953296001,-3.3470939821900005,8.66222179032,430435601.0,-1036556740,25.600000000000023,0.852,311.25,32137,32842,32814,-4.3292685,-5.0,38.048782,32760,32506,31188,-0.64,0.56,-0.04,1.0,0.0,0.0,0.0
964868577,730,2020-07-28/964868577s730ms.jpg,964868577s730ms.jpg,492,30724,32844,33048,-0.037597656,-0.125,1.012207,-0.3687070532124,-1.22583125,9.92635977655,430435591.0,-1036556716,25.600000000000023,0.838,311.59,32136,32857,32813,-5.243901999999999,-4.939024400000001,38.109756,32758,32500,31190,-0.62,0.55,-0.04,1.0,0.0,0.0,0.0
964868577,730,2020-07-28/964868577s730ms.jpg,964868577s730ms.jpg,141,31526,32751,33525,0.0078125,-0.35791016,0.62060547,0.076614453125,-3.509899670564,6.086060632375499,430435238.0,-1036556364,25.79999999999995,0.0,146.73,32978,32731,32573,2.4390244,9.695122,-13.231708,32755,32509,31176,0.1,-0.23,-0.04,1.0,0.0,0.0,0.0
964868577,730,2020-07-28/964868577s730ms.jpg,964868577s730ms.jpg,41,30754,32889,33451,-0.059570312,-0.32177734,0.9975586,-0.5841852001748001,-3.155557751311,9.78270804469,430435219.0,-1036556252,25.600000000000023,0.0,146.73,33171,32746,32791,1.5243902,-3.597561,-25.0,32757,32530,31173,0.04,-0.11,-0.05,1.0,0.0,0.0,0.0
964868577,730,2020-07-28/964868577s730ms.jpg,964868577s730ms.jpg,31,30765,32858,33122,-0.044433594,-0.16113281,0.9921875,-0.4357447046001,-1.5801730711865,9.730035546875,430435216.0,-1036556247,25.600000000000023,0.0,146.73,33163,32733,32803,2.317073,-4.3292685,-24.512196,32752,32509,31178,0.04,-0.1,-0.05,1.0,0.0,0.0,0.0
964868577,730,2020-07-28/964868577s730ms.jpg,964868577s730ms.jpg,11,30951,32792,32819,-0.012207031,-0.013183594,0.9013671999999998,-0.1197100805561499,-0.1292868921001,8.839392651879999,430435221.0,-1036556237,25.600000000000023,0.0,146.73,33130,32683,32779,5.365854,-2.8658535,-22.5,32754,32518,31180,0.04,-0.11,-0.05,1.0,0.0,0.0,0.0
964868577,730,2020-07-28/964868577s730ms.jpg,964868577s730ms.jpg,221,30768,32925,33301,-0.07714844,-0.24853516,0.99072266,-0.7565677491259999,-2.437297326814,9.715670373689,430435314.0,-1036556473,25.79999999999995,0.39,295.17,32506,32736,32519,2.1341465,12.987804,15.54878,32754,32511,31179,-0.35,0.16,-0.03,1.0,0.0,0.0,0.0
964868577,730,2020-07-28/964868577s730ms.jpg,964868577s730ms.jpg,251,30737,33095,33171,-0.16015625,-0.1850586,1.0058594,-1.5705962890624998,-1.81480491969,9.86411108501,430435336.0,-1036556501,25.79999999999995,0.4429999999999999,297.16,32383,32734,32541,2.2560976000000004,11.646341,23.04878,32759,32514,31178,-0.39,0.2,-0.03,1.0,0.0,0.0,0.0
964868577,730,2020-07-28/964868577s730ms.jpg,964868577s730ms.jpg,331,31004,32586,32957,0.088378906,-0.080566406,0.8754883,0.8667009985248999,-0.7900865453998999,8.585607337194999,430435406.0,-1036556579,25.79999999999995,0.5720000000000001,303.32,32070,32764,32550,0.42682928,11.097561,42.134148,32757,32491,31185,-0.47,0.31,-0.03,1.0,0.0,0.0,0.0
964868577,730,2020-07-28/964868577s730ms.jpg,964868577s730ms.jpg,261,30592,32965,32960,-0.09667969,-0.08203125,1.0766601999999998,-0.9481038819385,-0.8044517578125,10.55842975033,430435346.0,-1036556509,25.79999999999995,0.4539999999999999,298.05,32317,32752,32568,1.1585366,10.0,27.073172,32756,32497,31181,-0.4,0.21,-0.03,1.0,0.0,0.0,0.0
964868577,730,2020-07-28/964868577s730ms.jpg,964868577s730ms.jpg,301,30718,32966,33420,-0.09716797,-0.30664062,1.0151367,-0.9528922730005,-3.0071172361229994,9.955090319055,430435374.0,-1036556517,25.79999999999995,0.5,303.07,32100,32791,32494,-1.2195122,14.512196,40.30488,32769,32546,31170,-0.41,0.27,-0.03,1.0,0.0,0.0,0.0
964868624,710,2020-07-28/964868624s710ms.jpg,964868624s710ms.jpg,657,29800,32662,32592,0.05126953,0.09765625,1.4633789,0.5027823363745,0.9576806640625,14.350844689685,430420859.0,-1036541768,-48.19999999999999,1.642,220.75,32332,32653,32909,7.1951220000000005,-10.792683,26.158537,32729,32461,31333,-1.07,-1.24,-0.21,1.0,0.0,0.0,1.0
964868624,710,2020-07-28/964868624s710ms.jpg,964868624s710ms.jpg,516,30464,32823,32995,-0.02734375,-0.099121094,1.1391601999999998,-0.2681505859375,-0.9720458764751,11.17134537533,430421102.0,-1036541496,-47.80000000000001,1.126,258.95,32339,32732,32794,2.3780490000000003,-3.7804878,25.731707,32729,32457,31329,-1.1,-0.21,-0.2,1.0,0.0,0.0,1.0
964868624,710,2020-07-28/964868624s710ms.jpg,964868624s710ms.jpg,587,32307,31990,34085,0.37939453,-0.63134766,0.23925781,3.7205893676245,-6.191405529939,2.3463176024365,430421001.0,-1036541643,-48.0,1.473,235.49,32380,32525,32810,15.0,-4.756098000000001,23.231707,32725,32446,31334,-1.21,-0.83,-0.21,1.0,0.0,0.0,1.0
964868624,710,2020-07-28/964868624s710ms.jpg,964868624s710ms.jpg,862,31262,32433,33696,0.16308594,-0.44140625,0.7495116999999999,1.5993267335010002,-4.3287166015624985,7.350198912804999,430420334.0,-1036542007,-49.0,2.139,193.98,33026,32626,33200,8.841463000000001,-28.536585,-16.158537,32716,32448,31345,-0.51,-2.07,-0.22,1.0,0.0,0.0,1.0
964868624,710,2020-07-28/964868624s710ms.jpg,964868624s710ms.jpg,761,31580,32536,33416,0.11279297,-0.3046875,0.5942383000000001,1.1061211792505,-2.987963671875,5.827487024695,430420523.0,-1036541981,-48.600000000000016,2.208,200.48,32675,32682,33040,5.4268293,-18.780487,5.243901999999999,32719,32435,31345,-0.77,-2.06,-0.22,1.0,0.0,0.0,1.0
964868624,710,2020-07-28/964868624s710ms.jpg,964868624s710ms.jpg,914,31888,32863,33425,-0.046875,-0.30908203,0.44384766,-0.45968671875,-3.0310592894995,4.352658654939,430420260.0,-1036541987,-49.19999999999999,1.88,186.92,33095,32707,33041,3.902439,-18.841463,-20.365854,32716,32464,31342,-0.22,-1.86,-0.22,1.0,0.0,0.0,1.0
964868624,710,2020-07-28/964868624s710ms.jpg,964868624s710ms.jpg,852,31041,32614,33478,0.07470703,-0.33496094,0.8574219000000001,0.7326256957494999,-3.284844702251,8.408436475635,430420350.0,-1036542006,-49.0,2.158,194.74,32996,32603,33164,10.243902,-26.341463,-14.329268,32721,32459,31339,-0.54,-2.08,-0.22,1.0,0.0,0.0,1.0
964868624,710,2020-07-28/964868624s710ms.jpg,964868624s710ms.jpg,842,30650,32730,33299,0.018066406,-0.2475586,1.0483398000000002,0.1771709203998999,-2.42772054469,10.280701499669998,430420372.0,-1036542000,-49.0,2.166,195.42,32942,32631,33101,8.536586,-22.5,-11.036586,32726,32475,31334,-0.57,-2.08,-0.22,1.0,0.0,0.0,1.0
964868624,710,2020-07-28/964868624s710ms.jpg,964868624s710ms.jpg,822,30502,32067,33717,0.34179688,-0.45166016,1.1206055,3.351882373252,-4.429273108064,10.989385926574998,430420415.0,-1036541996,-48.80000000000001,2.174,197.53,32816,32809,33059,-2.317073,-19.939024,-3.3536584,32721,32454,31341,-0.65,-2.07,-0.22,1.0,0.0,0.0,1.0
964868624,710,2020-07-28/964868624s710ms.jpg,964868624s710ms.jpg,792,30178,32051,33035,0.34960938,-0.118652344,1.2788086,3.428496826377,-1.1635820092876,12.540828357189998,430420476.0,-1036541980,-48.80000000000001,2.199,198.45,32769,32727,33093,2.682927,-22.012196,-0.4878049,32726,32466,31338,-0.69,-2.08,-0.22,1.0,0.0,0.0,1.0
964868624,710,2020-07-28/964868624s710ms.jpg,964868624s710ms.jpg,771,31451,32547,33288,0.107421875,-0.2421875,0.65722656,1.05344873046875,-2.375048046875,6.445190844623999,430420501.0,-1036541983,-48.80000000000001,2.208,199.37,32711,32696,33004,4.5731707,-16.585365,3.0487804,32721,32445,31341,-0.73,-2.08,-0.22,1.0,0.0,0.0,1.0
964868624,710,2020-07-28/964868624s710ms.jpg,964868624s710ms.jpg,996,31751,33582,32860,-0.39794922,-0.033203125,0.5107422,-3.902548718313,-0.32561142578125,5.00866999563,430420166.0,-1036541894,-49.399999999999984,1.649,172.5,33138,32702,32941,4.207317,-12.743902,-22.987804,32717,32478,31337,0.21,-1.63,-0.22,1.0,0.0,0.0,1.0
964868624,710,2020-07-28/964868624s710ms.jpg,964868624s710ms.jpg,496,31269,32155,33830,0.29882812,-0.50683594,0.74609375,2.9305027829979995,-4.970362671000999,7.316680273437499,430421111.0,-1036541471,-47.80000000000001,1.087,264.32,32378,32742,32734,1.7682927,-0.12195122,23.353659,32733,32467,31327,-1.08,-0.1,-0.2,1.0,0.0,0.0,1.0
964868624,710,2020-07-28/964868624s710ms.jpg,964868624s710ms.jpg,212,30566,32886,33424,-0.05810547,-0.30859375,1.0893555,-0.5698200073755,-3.0262708984375,10.682928114075,430421141.0,-1036540702,-47.0,1.004,300.45,32324,32742,32723,1.7682927,0.5487805,26.646341,32728,32446,31327,-0.86,0.5,-0.19,1.0,0.0,0.0,1.0
964868624,710,2020-07-28/964868624s710ms.jpg,964868624s710ms.jpg,168,30581,32742,33029,0.012207031,-0.115722656,1.0820312,0.1197100805561499,-1.1348515844624,10.61110126748,430421159.0,-1036540570,-46.80000000000001,1.095,313.53,32144,32686,32638,5.1829267,5.731707,37.621952,32736,32480,31321,-0.79,0.75,-0.19,1.0,0.0,0.0,1.0
964868624,710,2020-07-28/964868624s710ms.jpg,964868624s710ms.jpg,322,29878,32899,31922,-0.064453125,0.4248047,1.425293,-0.63206923828125,4.165911011255,13.97734959845,430421187.0,-1036540992,-47.399999999999984,0.998,294.07,32574,32645,32852,7.6829267,-7.3170733,11.402439,32729,32454,31330,-0.91,0.4,-0.2,1.0,0.0,0.0,1.0
964868624,710,2020-07-28/964868624s710ms.jpg,964868624s710ms.jpg,312,30418,32860,32414,-0.0454101559999999,0.18457031,1.1616211,-0.4453215063374,1.8100164305615,11.391611560315,430421186.0,-1036540968,-47.399999999999984,0.993,294.86,32584,32664,32846,6.52439,-6.9512196,10.792683,32733,32466,31326,-0.9,0.41,-0.2,1.0,0.0,0.0,1.0
964868624,710,2020-07-28/964868624s710ms.jpg,964868624s710ms.jpg,292,30928,33022,33205,-0.12451172,-0.20166016,0.91259766,-1.221042858938,-1.977610608064,8.949525842439,430421170.0,-1036540907,-47.19999999999999,0.971,292.67,32604,32654,32829,7.134146,-5.914634,9.573171,32734,32468,31325,-0.89,0.37,-0.19,1.0,0.0,0.0,1.0
964868624,710,2020-07-28/964868624s710ms.jpg,964868624s710ms.jpg,282,30834,32987,33084,-0.107421875,-0.14257812,0.9584961,-1.05344873046875,-1.398213720498,9.399635779065,430421163.0,-1036540886,-47.19999999999999,0.962,291.23,32576,32631,32860,8.536586,-7.804877999999999,11.280488,32729,32450,31329,-0.89,0.34,-0.19,1.0,0.0,0.0,1.0
964868624,710,2020-07-28/964868624s710ms.jpg,964868624s710ms.jpg,272,30786,32776,32937,-0.0043945312,-0.07080078,0.9819336,-0.04309562939248,-0.6943184691869999,9.62947913844,430421156.0,-1036540864,-47.19999999999999,0.955,290.14,32532,32601,32898,10.365853,-10.121951,13.963414000000002,32727,32443,31331,-0.89,0.32,-0.19,1.0,0.0,0.0,1.0
964868569,722,2020-07-28/964868569s722ms.jpg,964868569s722ms.jpg,730,32912,32064,34197,0.34326172,-0.68603516,-0.056152344,3.366247546438,-6.727706701813999,-0.5506663842876,430449606.0,-1036557985,42.0,2.387,214.98,33953,32344,33394,26.036585,-40.365852,-72.68293,32758,32550,31208,-1.36,-1.95,-0.31,0.0,0.0,0.0,0.0
964868569,722,2020-07-28/964868569s722ms.jpg,964868569s722ms.jpg,579,31739,32079,33730,0.3359375,-0.4580077999999999,0.51660156,3.294421484375,-4.49152219187,5.066130688374,430450177.0,-1036557367,42.39999999999998,2.508,210.41,32686,32448,32889,19.695122,-9.573171,4.5731707,32768,32523,31205,-1.26,-2.16,-0.31,0.0,0.0,0.0,0.0
964868569,722,2020-07-28/964868569s722ms.jpg,964868569s722ms.jpg,569,31096,32471,33792,0.14453125,-0.48828125,0.8305664,1.4173673828125,-4.7884033203125,8.14507398656,430450221.0,-1036557326,42.60000000000002,2.524,209.72,32627,32495,32895,16.829268,-9.939024,8.170732000000001,32765,32509,31207,-1.25,-2.19,-0.31,0.0,0.0,0.0,0.0
964868569,722,2020-07-28/964868569s722ms.jpg,964868569s722ms.jpg,538,30353,32432,33129,0.16357422,-0.16455078,1.1933593999999998,1.604115124563,-1.613691906687,11.702857960010002,430450329.0,-1036557206,42.60000000000002,2.567,207.05,32701,32570,32941,12.256098,-12.743902,3.6585367,32760,32492,31210,-1.16,-2.28,-0.31,0.0,0.0,0.0,0.0
964868569,722,2020-07-28/964868569s722ms.jpg,964868569s722ms.jpg,771,29968,32809,33064,-0.020507812,-0.1328125,1.3813476999999998,-0.2011129345497999,-1.302445703125,13.546393422205,430449358.0,-1036558169,41.79999999999996,2.661,211.8,33422,32804,33204,-2.012195,-28.780487,-40.30488,32748,32529,31215,-1.4,-2.26,-0.31,0.0,0.0,0.0,0.0
964868569,722,2020-07-28/964868569s722ms.jpg,964868569s722ms.jpg,922,33689,33665,35305,-0.43847656,-1.2270508,-0.43554688,-4.299986157124001,-12.03325772782,-4.271255810752,430448457.0,-1036558780,41.200000000000045,3.1910000000000003,203.95,33593,32493,32905,16.951220000000003,-10.54878,-50.73171,32739,32561,31202,-1.29,-2.91,-0.31,0.0,0.0,0.0,0.0
964868569,722,2020-07-28/964868569s722ms.jpg,964868569s722ms.jpg,892,30247,33149,32523,-0.18652344,0.13134766,1.2451172,-1.829170092876,1.288080529939,12.21042858938,430448630.0,-1036558665,41.39999999999998,3.056,205.22,33461,32491,33164,17.073172,-26.341463,-42.682926,32738,32550,31207,-1.3,-2.76,-0.31,0.0,0.0,0.0,0.0
964868569,722,2020-07-28/964868569s722ms.jpg,964868569s722ms.jpg,882,31417,33082,34041,-0.1538086,-0.6098633000000001,0.6738281,-1.50834710719,-5.980715930944999,6.607996336865,430448682.0,-1036558627,41.39999999999998,3.047,205.43,33433,32542,32984,13.963414000000002,-15.365853,-40.97561,32738,32548,31208,-1.3,-2.75,-0.31,0.0,0.0,0.0,0.0
964868569,722,2020-07-28/964868569s722ms.jpg,964868569s722ms.jpg,186,29814,33681,32744,-0.44628906,0.0234375,1.456543,-4.3766006102490005,0.229843359375,14.28380741095,430451631.0,-1036555977,43.79999999999996,2.6260000000000003,237.15,32201,32767,32869,0.24390244,-8.353659,34.146343,32771,32532,31173,-2.2,-1.42,-0.31,0.0,0.0,0.0,0.0
964868569,722,2020-07-28/964868569s722ms.jpg,964868569s722ms.jpg,156,32153,33289,34551,-0.2548828,-0.8588867,0.31445312,-2.4995464106200003,-8.422801256555001,3.083731689248,430451760.0,-1036555745,44.0,2.645,234.18,32464,32692,32747,4.8170733,-0.91463417,18.109756,32762,32479,31180,-2.14,-1.54,-0.31,0.0,0.0,0.0,0.0
964868569,722,2020-07-28/964868569s722ms.jpg,964868569s722ms.jpg,146,31460,33371,34296,-0.29492188,-0.734375,0.65283203,-2.892195654502,-7.201758593749998,6.402095226999498,430451783.0,-1036555699,44.0,2.655,233.42,32602,32696,32814,4.5731707,-5.0,9.695122,32762,32481,31181,-2.13,-1.58,-0.31,0.0,0.0,0.0,0.0
964868569,722,2020-07-28/964868569s722ms.jpg,964868569s722ms.jpg,56,30299,32938,32946,-0.083496094,-0.07519531,1.2197266000000002,-0.8188169702250999,-0.7374140868115,11.96143186189,430452248.0,-1036555203,44.399999999999984,2.597,239.48,33079,32615,32974,9.512196,-14.756098,-19.390244,32770,32497,31173,-2.23,-1.31,-0.31,0.0,0.0,0.0,0.0
964868569,722,2020-07-28/964868569s722ms.jpg,964868569s722ms.jpg,258,31532,33553,34060,-0.38378906,-0.6191406,0.6176758000000001,-3.763684985249,-6.07169516499,6.057330384069999,430451458.0,-1036556241,43.600000000000016,2.502,237.34,31987,32697,32617,4.512194999999999,7.012194999999999,47.19512,32765,32496,31185,-2.1,-1.35,-0.31,0.0,0.0,0.0,0.0
964868569,722,2020-07-28/964868569s722ms.jpg,964868569s722ms.jpg,248,31043,33560,33832,-0.38720703,-0.5078125,0.8564453000000002,-3.7972038207495,-4.979939453125,8.398859301244999,430451483.0,-1036556214,43.600000000000016,2.584,238.16,32009,32684,32660,5.304878,4.390244,45.853657,32768,32515,31181,-2.19,-1.36,-0.31,0.0,0.0,0.0,0.0
964868569,722,2020-07-28/964868569s722ms.jpg,964868569s722ms.jpg,408,31097,32635,33576,0.064453125,-0.3828125,0.8300780999999999,0.63206923828125,-3.754108203125,8.140285399365,430450906.0,-1036556763,43.0,2.388,216.23,32327,32715,32769,3.4146342000000005,-2.2560976000000004,26.463415,32761,32490,31202,-1.41,-1.92,-0.31,0.0,0.0,0.0,0.0
964868569,722,2020-07-28/964868569s722ms.jpg,964868569s722ms.jpg,418,30351,32845,32996,-0.038085938,-0.099609375,1.1943358999999998,-0.3734954638877,-0.97683427734375,11.712434153735002,430450840.0,-1036556795,43.0,2.403,213.09,32303,32752,32829,1.1585366,-5.914634,27.926828000000004,32761,32487,31202,-1.31,-2.01,-0.31,0.0,0.0,0.0,0.0
964868569,722,2020-07-28/964868569s722ms.jpg,964868569s722ms.jpg,358,31235,32359,33671,0.19921875,-0.42919922,0.7626953000000001,1.9536685546875,-4.209006530812999,7.479485863744999,430451127.0,-1036556603,43.200000000000045,2.478,226.47,31943,32632,32480,8.475610000000001,15.365853,49.878048,32767,32499,31193,-1.79,-1.7,-0.31,0.0,0.0,0.0,0.0
964868569,722,2020-07-28/964868569s722ms.jpg,964868569s722ms.jpg,328,28759,33197,32027,-0.20996094,0.37353516,1.9716797,-2.059013452251,3.663128576814,19.335572730005,430451231.0,-1036556504,43.399999999999984,2.484,230.54,31628,32773,32667,-0.12195122,3.9634147,69.085365,32763,32489,31194,-1.91,-1.57,-0.31,0.0,0.0,0.0,0.0
964868569,722,2020-07-28/964868569s722ms.jpg,964868569s722ms.jpg,308,30973,33128,33482,-0.17626953,-0.33691406,0.890625,-1.7286135863745,-3.303998266499,8.734047656249999,430451303.0,-1036556431,43.399999999999984,2.476,232.92,31645,32762,32549,0.5487805,11.158537,68.04878000000001,32761,32491,31195,-1.97,-1.49,-0.31,0.0,0.0,0.0,0.0
964868569,722,2020-07-28/964868569s722ms.jpg,964868569s722ms.jpg,298,31172,33317,33610,-0.2685547,-0.39941406,0.79345703,-2.633621948755,-3.916913891499,7.7811553832495,430451338.0,-1036556387,43.399999999999984,2.464,233.84,31736,32733,32575,2.317073,9.573171,62.5,32763,32493,31192,-1.98,-1.45,-0.31,0.0,0.0,0.0,0.0
964868631,717,2020-07-28/964868631s717ms.jpg,964868631s717ms.jpg,693,30899,32651,33186,0.056640625,-0.19238281,0.9267578000000002,0.55545478515625,-1.8866308836865,9.08838937937,430418888.0,-1036538719,-52.399999999999984,0.33,75.65,32358,32952,32734,-11.036586,-0.12195122,24.573172,32701,32480,31352,0.31,0.08,-0.06,2.0,0.0,1.0,1.0
964868631,717,2020-07-28/964868631s717ms.jpg,964868631s717ms.jpg,601,30392,32642,32648,0.0610351559999999,0.0703125,1.1743164,0.5985504125873999,0.689530078125,11.516109924059998,430418788.0,-1036539016,-53.19999999999999,0.0,106.68,32256,32990,32597,-13.353659,8.231708,30.792683,32696,32484,31357,0.23,-0.08,-0.07,2.0,0.0,1.0,1.0
964868631,717,2020-07-28/964868631s717ms.jpg,964868631s717ms.jpg,632,30661,32329,33366,0.21386719,-0.28027344,1.0429688,2.0973206788135,-2.748543530376,10.22802998252,430418819.0,-1036538915,-53.0,0.0,106.68,32277,33018,32636,-15.060976,5.8536587,29.512196000000003,32704,32506,31349,0.25,-0.09,-0.07,2.0,0.0,1.0,1.0
964868631,717,2020-07-28/964868631s717ms.jpg,964868631s717ms.jpg,955,31149,32516,33575,0.122558594,-0.38232422,0.8046875,1.2018892358501,-3.749319812063,7.891288671874999,430418169.0,-1036538797,-49.600000000000016,0.316,104.72,33211,32944,32890,-10.54878,-9.634147,-27.439024,32709,32491,31337,0.3,-0.08,-0.06,2.0,0.0,1.0,1.0
964868631,717,2020-07-28/964868631s717ms.jpg,964868631s717ms.jpg,935,30706,32705,33679,0.030273438,-0.43310547,1.0209961,0.2968810107627,-4.247313757375498,10.012551404065,430418224.0,-1036538775,-50.0,0.316,101.24,33188,33011,32917,-14.634147,-11.280488,-26.036585,32713,32507,31336,0.3,-0.06,-0.06,2.0,0.0,1.0,1.0
964868631,717,2020-07-28/964868631s717ms.jpg,964868631s717ms.jpg,763,32032,32735,33572,0.015625,-0.38085938,0.37353516,0.15322890625,-3.734954638877,3.663128576814,430418730.0,-1036538622,-51.600000000000016,0.364,83.74,32856,32933,32838,-9.878049,-6.4634147,-5.792683,32703,32475,31351,0.36,0.03,-0.06,2.0,0.0,1.0,1.0
964868631,717,2020-07-28/964868631s717ms.jpg,964868631s717ms.jpg,895,31192,32390,33260,0.18408203,-0.22851562,0.7836914,1.8052280394995,-2.240972704873,7.685387267809999,430418320.0,-1036538727,-50.19999999999999,0.319,99.33,33227,32995,32918,-13.658537,-11.341463,-28.414635,32713,32506,31338,0.31,-0.05,-0.06,2.0,0.0,1.0,1.0
964868631,717,2020-07-28/964868631s717ms.jpg,964868631s717ms.jpg,843,30858,32689,32761,0.038085938,0.015136719,0.94677734,0.3734954638877,0.1484405053813499,9.284714001311,430418452.0,-1036538664,-50.80000000000001,0.337,95.61,33153,33025,32886,-15.487804,-9.390244,-23.90244,32714,32508,31338,0.33,-0.03,-0.06,2.0,0.0,1.0,1.0
964868631,717,2020-07-28/964868631s717ms.jpg,964868631s717ms.jpg,510,30815,33329,32453,-0.27441406,0.16552734,0.96777344,-2.6910826414990003,1.623268688811,9.490615405376,430418738.0,-1036539280,-54.399999999999984,0.0,106.68,32475,33013,32742,-14.756098,-0.6097561,17.439024,32697,32521,31348,0.24,-0.08,-0.09,2.0,0.0,1.0,1.0
964868631,717,2020-07-28/964868631s717ms.jpg,964868631s717ms.jpg,0,31098,32373,33023,0.19238281,-0.11279297,0.82958984,1.8866308836865,-1.1061211792505,8.135497204436001,430418439.0,-1036540450,-60.399999999999984,0.907,147.59,32589,32818,32490,-2.8658535,14.756098,10.487804,32698,32532,31344,0.48,-0.76,-0.3,2.0,0.0,1.0,1.0
964868631,717,2020-07-28/964868631s717ms.jpg,964868631s717ms.jpg,165,31350,33234,33408,-0.22802734,-0.30078125,0.70654297,-2.236184313811,-2.9496564453125,6.928819616750499,430418348.0,-1036540201,-58.600000000000016,0.491,124.96,32304,32628,32741,8.719512,-0.5487805,27.865854,32697,32504,31351,0.4,-0.28,-0.18,2.0,0.0,1.0,1.0
964868631,717,2020-07-28/964868631s717ms.jpg,964868631s717ms.jpg,135,30559,33179,32930,-0.20117188,-0.06738281,1.0927733999999998,-1.972822217002,-0.6607996336865,10.71644626311,430418374.0,-1036540249,-59.0,0.519,129.33,32262,32624,32698,8.963414,2.0731707,30.426828000000004,32700,32514,31349,0.4,-0.32,-0.19,2.0,0.0,1.0,1.0
964868631,717,2020-07-28/964868631s717ms.jpg,964868631s717ms.jpg,75,30452,32576,33700,0.09326172,-0.44335938,1.1450195,0.914585046438,-4.347870263877001,11.228805479675,430418418.0,-1036540343,-59.80000000000001,0.647,142.15,32347,32865,32591,-5.731707,8.597561,25.243902,32705,32531,31341,0.39,-0.51,-0.26,2.0,0.0,1.0,1.0
964868631,717,2020-07-28/964868631s717ms.jpg,964868631s717ms.jpg,255,30333,32440,33398,0.15966797,-0.29589844,1.203125,1.5658078980005,-2.901772436626,11.79862578125,430418442.0,-1036539899,-57.399999999999984,0.502,101.08,32259,32682,32827,5.4268293,-5.792683,30.609756,32687,32479,31362,0.49,-0.09,-0.15,2.0,0.0,1.0,1.0
964868631,717,2020-07-28/964868631s717ms.jpg,964868631s717ms.jpg,462,30382,33407,33067,-0.3125,-0.13427734,1.1791992,-3.064578125,-1.3168108763109998,11.56399383468,430418687.0,-1036539399,-55.0,0.0,106.68,32609,33064,32843,-17.865854000000002,-6.768292999999999,9.268292,32685,32495,31358,0.25,-0.09,-0.1,2.0,0.0,1.0,1.0
964868631,717,2020-07-28/964868631s717ms.jpg,964868631s717ms.jpg,442,31894,33698,33325,-0.45458984,-0.2602539,0.44091797,-4.458003454436,-2.5522189084349995,4.323928210500498,430418653.0,-1036539461,-55.19999999999999,0.0,106.68,32702,32946,32914,-10.670732,-11.097561,3.597561,32682,32492,31361,0.25,-0.09,-0.11,2.0,0.0,1.0,1.0
964868631,717,2020-07-28/964868631s717ms.jpg,964868631s717ms.jpg,402,30940,32891,33248,-0.060546875,-0.22265625,0.9067383,-0.59376201171875,-2.1835119140625,8.892065149695,430418542.0,-1036539620,-55.80000000000001,0.0,106.68,32986,32969,33019,-12.073171,-17.5,-13.719512,32686,32506,31358,0.28,-0.1,-0.13,2.0,0.0,1.0,1.0
964868631,717,2020-07-28/964868631s717ms.jpg,964868631s717ms.jpg,329,32420,32549,33471,0.10644531,-0.33154297,0.18408203,1.0438718993115002,-3.2513258667505003,1.8052280394995,430418478.0,-1036539764,-56.600000000000016,0.44,103.52,32857,32672,33007,6.0365853,-16.768293,-5.8536587,32688,32504,31361,0.42,-0.1,-0.13,2.0,0.0,1.0,1.0
964868631,717,2020-07-28/964868631s717ms.jpg,964868631s717ms.jpg,289,30372,32775,33452,-0.00390625,-0.32226562,1.184082,-0.0383072265625,-3.160346142373,11.6118777453,430418470.0,-1036539820,-57.19999999999999,0.515,99.24,32415,32623,32911,9.02439,-10.914634,21.09756,32691,32504,31359,0.5,-0.08,-0.14,2.0,0.0,1.0,1.0
964868647,700,2020-07-28/964868647s700ms.jpg,964868647s700ms.jpg,645,32289,32844,33181,-0.037597656,-0.1899414,0.24804688,-0.3687070532124,-1.86268883031,2.432508935752,430453715.0,-1036521037,-75.39999999999998,3.09,349.95,32966,32671,32579,6.097561,9.329268,-12.5,32716,32536,31310,-0.53,3.04,-0.35,2.0,0.0,1.0,1.0
964868647,700,2020-07-28/964868647s700ms.jpg,964868647s700ms.jpg,685,30485,33076,33870,-0.1508789,-0.5263671999999999,1.1289062,-1.479616564685,-5.16189890188,11.070787986230002,430453730.0,-1036521126,-75.60000000000002,3.035,350.38,32762,32849,32580,-4.756098000000001,9.268292,-0.06097561,32722,32557,31305,-0.5,2.99,-0.36,2.0,0.0,1.0,1.0
964868647,700,2020-07-28/964868647s700ms.jpg,964868647s700ms.jpg,675,29998,32975,33781,-0.1015625,-0.48291016,1.3666992,-0.995987890625,-4.735730920564,13.40274070968,430453722.0,-1036521104,-75.60000000000002,3.051,350.24,32783,32863,32619,-5.609756,6.890244,-1.3414634,32717,32537,31308,-0.51,3.0,-0.36,2.0,0.0,1.0,1.0
964868647,700,2020-07-28/964868647s700ms.jpg,964868647s700ms.jpg,655,30977,32821,32538,-0.026367188,0.12402344,0.8886719000000001,-0.2585737842002,1.216254467876,8.714894288135001,430453720.0,-1036521058,-75.60000000000002,3.08,350.18,32895,32730,32570,2.5,9.878049,-8.170732000000001,32712,32525,31313,-0.52,3.03,-0.35,2.0,0.0,1.0,1.0
964868647,700,2020-07-28/964868647s700ms.jpg,964868647s700ms.jpg,555,30794,33281,32819,-0.25097656,-0.013183594,0.97802734,-2.461239282124,-0.1292868921001,9.591171813811,430453583.0,-1036520858,-75.0,3.136,347.08,33130,32761,32919,0.6097561,-11.402439,-22.5,32723,32559,31306,-0.7,3.05,-0.35,2.0,0.0,1.0,1.0
964868647,700,2020-07-28/964868647s700ms.jpg,964868647s700ms.jpg,998,29181,32830,31454,-0.030761719,0.6533203000000001,1.765625,-0.30166941163135,6.4068835199950005,17.314866406249998,430453493.0,-1036522155,-77.60000000000002,2.407,330.72,32047,32666,32751,6.402439,-1.1585366,43.536587,32710,32489,31340,-1.17,2.09,-0.37,2.0,0.0,1.0,1.0
964868647,700,2020-07-28/964868647s700ms.jpg,964868647s700ms.jpg,958,31307,32712,33264,0.026855469,-0.23046875,0.72753906,0.26336218506885,-2.2601263671875,7.134720922749,430453517.0,-1036521937,-77.39999999999998,2.171,339.63,32021,32473,32722,18.170732,0.6097561,45.121952,32719,32525,31328,-0.75,2.03,-0.39,2.0,0.0,1.0,1.0
964868647,700,2020-07-28/964868647s700ms.jpg,964868647s700ms.jpg,928,30416,33001,33135,-0.11425781,-0.16748047,1.1625976999999998,-1.1204863524365,-1.6424223511254998,11.401188734705,430453543.0,-1036521815,-77.19999999999997,2.182,342.09,32057,32431,32643,20.731707,5.4268293,42.92683,32710,32493,31334,-0.67,2.07,-0.39,2.0,0.0,1.0,1.0
964868647,700,2020-07-28/964868647s700ms.jpg,964868647s700ms.jpg,755,30958,32549,33558,0.10644531,-0.37402344,0.8979492,1.0438718993115002,-3.667916967876,8.805873522179999,430453767.0,-1036521250,-76.0,2.888,352.5,32567,32654,32600,7.134146,8.04878,11.829268,32722,32547,31307,-0.37,2.86,-0.36,2.0,0.0,1.0,1.0
964868647,700,2020-07-28/964868647s700ms.jpg,964868647s700ms.jpg,797,30929,32734,33258,0.016113281,-0.22753906,0.9121094,0.1580173071186499,-2.231395922749,8.944737647510001,430453730.0,-1036521370,-76.19999999999997,2.636,349.81,32420,32587,32594,11.219512,8.414634,20.792683,32714,32521,31318,-0.46,2.59,-0.37,2.0,0.0,1.0,1.0
964868647,700,2020-07-28/964868647s700ms.jpg,964868647s700ms.jpg,878,29738,32965,32793,-0.09667969,-0.00048828125,1.4936523000000002,-0.9481038819385,-0.0047884033203125,14.647725327794998,430453620.0,-1036521645,-76.80000000000003,2.28,343.79,32115,32568,32654,12.378049,4.756098000000001,39.390244,32715,32516,31322,-0.63,2.18,-0.39,2.0,0.0,1.0,1.0
964868647,700,2020-07-28/964868647s700ms.jpg,964868647s700ms.jpg,495,29979,32383,32878,0.1875,-0.041992188,1.3759766000000002,1.838746875,-0.4118026904502,13.49372092439,430453473.0,-1036520722,-74.60000000000002,3.174,345.63,33047,32867,32870,-5.8536587,-8.414634,-17.439024,32722,32551,31310,-0.78,3.07,-0.34,2.0,0.0,1.0,1.0
964868647,700,2020-07-28/964868647s700ms.jpg,964868647s700ms.jpg,171,30328,33262,32790,-0.24169922,0.0009765625,1.2055664,-2.370259655813,0.009576806640625,11.822567736559998,430452460.0,-1036519968,-73.0,2.929,347.59,32139,32872,32408,-6.1585364,19.756098,37.92683,32712,32557,31299,-0.62,2.86,-0.3,2.0,0.0,1.0,1.0
964868647,700,2020-07-28/964868647s700ms.jpg,964868647s700ms.jpg,128,31338,32926,33177,-0.07763672,-0.18798828,0.71240234,-0.761356140188,-1.843535266062,6.986280407561001,430452440.0,-1036519857,-73.0,3.091,348.83,32181,32814,32343,-2.621951,23.719513,35.365852000000004,32703,32548,31300,-0.59,3.03,-0.29,2.0,0.0,1.0,1.0
964868647,700,2020-07-28/964868647s700ms.jpg,964868647s700ms.jpg,88,30825,33325,33754,-0.27246094,-0.46972656,0.9628906,-2.6719290772510003,-4.606443969624,9.44273110249,430452357.0,-1036519771,-72.80000000000003,3.149,349.05,32366,32822,32326,-3.109756,24.756098,24.085365,32710,32595,31289,-0.59,3.09,-0.29,2.0,0.0,1.0,1.0
964868647,700,2020-07-28/964868647s700ms.jpg,964868647s700ms.jpg,18,30303,32232,32406,0.26123047,0.18847656,1.2177733999999998,2.5617957886255,1.848323657124,11.94227751311,430452365.0,-1036519575,-72.60000000000002,3.537,347.98,32799,32785,32393,-0.85365856,20.670732,-2.317073,32696,32574,31296,-0.73,3.45,-0.28,2.0,0.0,1.0,1.0
964868647,700,2020-07-28/964868647s700ms.jpg,964868647s700ms.jpg,464,29811,32477,32537,0.14160156,0.12451172,1.4580078,1.3886369383739998,1.221042858938,14.29817219187,430453413.0,-1036520642,-74.60000000000002,3.181,344.89,32937,32901,32931,-7.9268293,-12.134147,-10.731708,32715,32510,31319,-0.82,3.07,-0.34,2.0,0.0,1.0,1.0
964868647,700,2020-07-28/964868647s700ms.jpg,964868647s700ms.jpg,424,31189,32688,33115,0.03857422,-0.15771484,0.78515625,0.378283874563,-1.5466542356859998,7.6997525390625,430453219.0,-1036520560,-74.19999999999997,3.14,343.83,32557,32826,32729,-3.3536584,0.18292683,12.439024,32722,32547,31310,-0.87,3.01,-0.33,2.0,0.0,1.0,1.0
964868647,700,2020-07-28/964868647s700ms.jpg,964868647s700ms.jpg,404,31541,33260,33590,-0.24072266,-0.38964844,0.61328125,-2.360682873689,-3.821145874126,6.0142345703125,430453125.0,-1036520538,-74.19999999999997,3.12,342.92,32398,32834,32746,-3.8414633,-0.85365856,22.134146,32717,32525,31319,-0.91,2.98,-0.33,2.0,0.0,1.0,1.0
964868647,700,2020-07-28/964868647s700ms.jpg,964868647s700ms.jpg,302,30587,32918,33452,-0.07373047,-0.32226562,1.0791016000000002,-0.7230489136255001,-3.160346142373,10.582371705639998,430452538.0,-1036520360,-73.60000000000002,2.659,340.88,31938,32845,32713,-4.512194999999999,1.1585366,50.182926,32721,32555,31310,-0.87,2.51,-0.31,2.0,0.0,1.0,1.0
964868677,730,2020-07-28/964868677s730ms.jpg,964868677s730ms.jpg,687,30214,32597,31492,0.08300781,0.6347656,1.2612305,0.8140285399364999,6.224924071240001,12.368446082825,430500288.0,-1036462505,-113.39999999999998,1.7,61.09,33407,32760,32783,0.6707316999999999,-3.109756,-39.390244,32666,32630,31252,1.48,0.82,-0.23,3.0,1.0,2.0,3.0
964868677,730,2020-07-28/964868677s730ms.jpg,964868677s730ms.jpg,587,26935,32103,30214,0.32421875,1.2587891000000002,2.8623047,3.1794998046875,12.344504127514998,28.069620386255004,430500086.0,-1036462672,-113.8,1.555,70.27,32898,33076,32740,-18.59756,-0.4878049,-8.353659,32679,32648,31258,1.46,0.52,-0.23,3.0,1.0,2.0,3.0
964868677,730,2020-07-28/964868677s730ms.jpg,964868677s730ms.jpg,575,30905,32538,31358,0.111816406,0.7001953000000001,0.9238281,1.0965443578999,6.866570238744999,9.059658836865,430500104.0,-1036462678,-114.2,1.5419999999999998,70.41,32955,32948,32709,-10.792683,1.402439,-11.829268,32677,32635,31262,1.45,0.51,-0.23,3.0,1.0,2.0,3.0
964868677,730,2020-07-28/964868677s730ms.jpg,964868677s730ms.jpg,554,32584,32251,34161,0.25195312,-0.66845703,0.104003906,2.4708160642479995,-6.5553241332495,1.0199299047749,430500136.0,-1036462692,-114.60000000000002,1.518,70.83,32746,32464,32770,18.719513,-2.317073,0.91463417,32679,32642,31262,1.43,0.49,-0.23,3.0,1.0,2.0,3.0
964868677,730,2020-07-28/964868677s730ms.jpg,964868677s730ms.jpg,737,36183,32261,33841,0.24707031,-0.51220703,-1.6533203,2.4229320555615,-5.0230350707495,-16.213533519995,430500398.0,-1036462374,-113.60000000000002,1.803,63.3,33311,32829,32672,-3.5365853,3.6585367,-33.536587,32668,32636,31242,1.61,0.8,-0.23,3.0,1.0,2.0,3.0
964868677,730,2020-07-28/964868677s730ms.jpg,964868677s730ms.jpg,513,32916,32814,33419,-0.022949219,-0.30615234,-0.05810547,-0.22505495850635,-3.002328845061,-0.5698200073755,430500196.0,-1036462740,-115.39999999999998,1.4880000000000002,71.99,32932,32232,32733,32.865852000000004,-0.06097561,-10.426829,32682,32654,31260,1.41,0.46,-0.23,3.0,1.0,2.0,3.0
964868677,730,2020-07-28/964868677s730ms.jpg,964868677s730ms.jpg,981,30833,31877,34476,0.4345702999999999,-0.8222655999999999,0.9589844,4.261678832495,-8.06367094624,9.40442436626,430500705.0,-1036461807,-112.8,2.075,66.3,34191,32006,32952,46.646343,-13.414634,-87.19511999999999,32662,32677,31223,1.89,0.83,-0.24,3.0,1.0,2.0,3.0
964868677,730,2020-07-28/964868677s730ms.jpg,964868677s730ms.jpg,961,28383,33831,31825,-0.51953125,0.47216797,2.1552734,-5.0948611328125,4.6303860230005,21.13601188811,430500757.0,-1036461846,-113.2,2.063,65.86,34213,32364,32869,24.817074,-8.353659,-88.53658,32653,32638,31232,1.88,0.84,-0.24,3.0,1.0,2.0,3.0
964868677,730,2020-07-28/964868677s730ms.jpg,964868677s730ms.jpg,941,32069,33699,31976,-0.45507812,0.3984375,0.35546875,-4.462791845498,3.907337109375,3.4859576171875,430500827.0,-1036461880,-113.60000000000002,2.068,65.16,33680,32430,32935,20.792683,-12.378049,-56.036587,32657,32643,31236,1.87,0.86,-0.24,3.0,1.0,2.0,3.0
964868677,730,2020-07-28/964868677s730ms.jpg,964868677s730ms.jpg,879,31498,33191,32497,-0.20703125,0.14404297,0.63427734,-2.0302830078125,1.4125789917504998,6.220135876311001,430500698.0,-1036462031,-113.60000000000002,1.945,64.82,33076,32330,32758,26.890244,-1.5853659,-19.207317,32661,32637,31244,1.76,0.82,-0.24,3.0,1.0,2.0,3.0
964868677,730,2020-07-28/964868677s730ms.jpg,964868677s730ms.jpg,757,29088,33212,31354,-0.21728516,0.70214844,1.8110352,-2.130839514314,6.885723999125999,17.76018834408,430500443.0,-1036462318,-113.60000000000002,1.865,63.84,33400,33052,32840,-17.134145999999998,-6.5853660000000005,-38.963413,32665,32627,31240,1.67,0.82,-0.23,3.0,1.0,2.0,3.0
964868677,730,2020-07-28/964868677s730ms.jpg,964868677s730ms.jpg,209,28760,34705,34585,-0.94628906,-0.8754883,1.9711914,-9.279925610249,-8.585607337194999,19.33078414281,430500627.0,-1036463112,-122.60000000000002,1.484,83.44,33180,32380,33158,23.841463,-25.975609,-25.54878,32700,32588,31279,1.47,0.16,-0.22,3.0,1.0,2.0,3.0
964868677,730,2020-07-28/964868677s730ms.jpg,964868677s730ms.jpg,199,30742,34050,34142,-0.62646484,-0.6591796999999999,1.003418,-6.143521423186001,-6.464344605005,9.840169129699998,430500633.0,-1036463126,-123.0,1.463,67.76,33113,32384,33023,23.59756,-17.743902,-21.463415,32704,32590,31275,1.35,0.55,-0.22,3.0,1.0,2.0,3.0
964868677,730,2020-07-28/964868677s730ms.jpg,964868677s730ms.jpg,109,34024,31994,34418,0.3774414,-0.7939453000000001,-0.5991211,3.70143570531,-7.785943676244999,-5.875370935314999,430500732.0,-1036463258,-125.2,1.151,67.76,33464,32652,33185,7.256098,-27.621952,-42.865852,32709,32572,31285,1.06,0.43,-0.22,3.0,1.0,2.0,3.0
964868677,730,2020-07-28/964868677s730ms.jpg,964868677s730ms.jpg,79,31843,32905,33138,-0.06738281,-0.16894531,0.4658202999999999,-0.6607996336865,-1.6567875243114998,4.568136644995,430500756.0,-1036463302,-126.0,1.11,67.76,33760,32359,33352,25.121952,-37.80488,-60.914635,32718,32586,31282,1.02,0.42,-0.22,3.0,1.0,2.0,3.0
964868677,730,2020-07-28/964868677s730ms.jpg,964868677s730ms.jpg,69,31465,32824,34641,-0.027832031,-0.90283203,0.6503906,-0.27293898680615,-8.853757726999499,6.378152977490001,430500764.0,-1036463308,-126.2,1.11,67.76,33742,32364,33352,24.817074,-37.80488,-59.817074,32713,32559,31286,1.02,0.42,-0.22,3.0,1.0,2.0,3.0
964868677,730,2020-07-28/964868677s730ms.jpg,964868677s730ms.jpg,59,30089,32628,34870,0.067871094,-1.0146484,1.3222656000000002,0.6655880639751001,-9.950301731860002,12.96699594624,430500771.0,-1036463313,-126.39999999999998,1.107,67.76,33669,32443,33323,20.0,-36.036587,-55.365852,32711,32548,31289,1.02,0.41,-0.23,3.0,1.0,2.0,3.0
964868677,730,2020-07-28/964868677s730ms.jpg,964868677s730ms.jpg,219,28122,33558,32663,-0.38623047,0.06298828,2.2827148,-3.7876270386255,0.6177040160619999,22.38578509342,430500632.0,-1036463096,-122.60000000000002,1.495,82.6,33159,32431,33230,20.731707,-30.365854,-24.268293,32696,32584,31281,1.48,0.19,-0.22,3.0,1.0,2.0,3.0
964868677,730,2020-07-28/964868677s730ms.jpg,964868677s730ms.jpg,392,31026,33581,32378,-0.39746094,0.20214844,0.8647461,-3.897760327251,1.982398999126,8.480262341564998,430500454.0,-1036462829,-118.2,1.529,77.85,33593,32220,32928,33.597559999999994,-11.95122,-50.73171,32676,32613,31268,1.49,0.32,-0.23,3.0,1.0,2.0,3.0
964868677,730,2020-07-28/964868677s730ms.jpg,964868677s730ms.jpg,331,29322,32842,31519,-0.036621094,0.62158203,1.6967773000000002,-0.3591302514751,6.0956374144995,16.639701109045,430500553.0,-1036462900,-119.60000000000002,1.588,80.86,33621,32815,33344,-2.682927,-37.317074,-52.439026,32692,32624,31262,1.56,0.25,-0.22,3.0,1.0,2.0,3.0
964868661,714,2020-07-28/964868661s714ms.jpg,964868661s714ms.jpg,731,26935,32902,29217,-0.06591797,1.7456055,2.8623047,-0.6464344605005,17.118542176574998,28.069620386255004,430485748.0,-1036503019,-133.60000000000002,5.379,41.93,32372,32946,32871,-10.670732,-8.475610000000001,23.719513,32749,32470,31296,3.59,4.0,-0.3,2.0,0.0,1.0,1.0
964868661,714,2020-07-28/964868661s714ms.jpg,964868661s714ms.jpg,599,31153,32513,33448,0.12402344,-0.3203125,0.8027344,1.216254467876,-3.141192578125,7.872135303759999,430485497.0,-1036503611,-133.2,5.989,41.64,32288,32589,32739,11.097561,-0.42682928,28.841463,32751,32488,31288,3.97,4.47,-0.3,2.0,0.0,1.0,1.0
964868661,714,2020-07-28/964868661s714ms.jpg,964868661s714ms.jpg,547,30840,32347,33184,0.20507812,-0.19140625,0.9555664,2.011129345498,-1.8770541015625,9.37090523656,430485365.0,-1036503890,-133.0,6.146,40.19,32171,32712,32769,3.597561,-2.2560976000000004,35.97561,32750,32487,31285,3.96,4.69,-0.3,2.0,0.0,1.0,1.0
964868661,714,2020-07-28/964868661s714ms.jpg,964868661s714ms.jpg,741,27522,32112,32022,0.31982422,0.37597656,2.5756836,3.1364041870630004,3.687070532124,25.25882757594,430485765.0,-1036502989,-133.60000000000002,5.283,41.57,32332,33071,32997,-18.292683,-16.158537,26.158537,32748,32460,31295,3.5,3.95,-0.3,2.0,0.0,1.0,1.0
964868661,714,2020-07-28/964868661s714ms.jpg,964868661s714ms.jpg,972,26282,32726,33240,0.020019531,-0.21875,3.1811523,0.19632453368115,-2.1452046875,31.196447202795,430485869.0,-1036502283,-134.2,4.292,38.79,32143,33238,32955,-28.475609,-13.597561,37.682926,32746,32449,31301,2.68,3.34,-0.3,2.0,0.0,1.0,1.0
964868661,714,2020-07-28/964868661s714ms.jpg,964868661s714ms.jpg,821,30888,32525,33276,0.11816406,-0.23632812,0.9321289,1.158793578999,-2.317587157998,9.141061877185,430485849.0,-1036502785,-133.8,4.834,38.61,32284,32728,32786,2.621951,-3.292683,29.085365000000003,32758,32491,31290,3.01,3.77,-0.3,2.0,0.0,1.0,1.0
964868661,714,2020-07-28/964868661s714ms.jpg,964868661s714ms.jpg,781,31026,32088,31903,0.33154297,0.43408203,0.8647461,3.2513258667505003,4.2568905394995,8.480262341564998,430485829.0,-1036502893,-133.60000000000002,5.072,39.26,32188,32546,32792,13.719512,-3.6585367,34.939026,32751,32471,31294,3.21,3.92,-0.3,2.0,0.0,1.0,1.0
964868661,714,2020-07-28/964868661s714ms.jpg,964868661s714ms.jpg,497,31398,32334,33205,0.21142578,-0.20166016,0.68310547,2.073378625437,-1.977610608064,6.6989762573755005,430485190.0,-1036504217,-133.0,6.141,37.7,31812,32697,32555,4.512194999999999,10.792683,57.865852,32747,32479,31287,3.75,4.85,-0.31,2.0,0.0,1.0,1.0
964868661,714,2020-07-28/964868661s714ms.jpg,964868661s714ms.jpg,204,30646,32573,32808,0.09472656,-0.0078125,1.050293,0.928950219624,-0.076614453125,10.29985584845,430483891.0,-1036505928,-132.2,5.811,30.25,32345,32862,32525,-5.5487804,12.621951,25.365854,32732,32519,31276,2.92,5.01,-0.31,2.0,0.0,1.0,1.0
964868661,714,2020-07-28/964868661s714ms.jpg,964868661s714ms.jpg,154,31372,33191,33490,-0.20703125,-0.3408203,0.6958008000000001,-2.0302830078125,-3.342305394995,6.823474915319999,430483678.0,-1036506153,-132.0,5.86,28.6,32370,32571,32498,12.195122,14.268292,23.841463,32737,32533,31269,2.8,5.14,-0.31,2.0,0.0,1.0,1.0
964868661,714,2020-07-28/964868661s714ms.jpg,964868661s714ms.jpg,124,30727,32972,33769,-0.100097656,-0.47705078,1.0107422,-0.9816226782124,-4.678270031687,9.911994995629998,430483609.0,-1036506269,-132.0,5.925,26.18,32368,32604,32458,10.182927,16.707317,23.963415,32736,32535,31269,2.61,5.31,-0.31,2.0,0.0,1.0,1.0
964868661,714,2020-07-28/964868661s714ms.jpg,964868661s714ms.jpg,94,30587,32922,33066,-0.075683594,-0.13378906,1.0791016000000002,-0.7422025171000999,-1.312022485249,10.582371705639998,430483497.0,-1036506406,-131.8,5.959,23.87,32544,32479,32488,17.804878,14.878049,13.231708,32735,32546,31264,2.41,5.44,-0.31,2.0,0.0,1.0,1.0
964868661,714,2020-07-28/964868661s714ms.jpg,964868661s714ms.jpg,84,31182,33004,33405,-0.115722656,-0.2993164,0.7885741999999999,-1.1348515844624,-2.93529117406,7.733271178430001,430483460.0,-1036506440,-131.8,5.964,23.58,32586,32441,32473,20.121952,15.792682999999998,10.670732,32741,32564,31258,2.38,5.46,-0.3,2.0,0.0,1.0,1.0
964868661,714,2020-07-28/964868661s714ms.jpg,964868661s714ms.jpg,74,31422,33070,33339,-0.14794922,-0.26708984,0.6713866999999999,-1.4508862183129998,-2.619256579436,6.584054381554999,430483427.0,-1036506471,-131.8,5.966,23.4,32603,32429,32464,20.853659,16.341463,9.634147,32742,32569,31257,2.36,5.47,-0.3,2.0,0.0,1.0,1.0
964868661,714,2020-07-28/964868661s714ms.jpg,964868661s714ms.jpg,487,31112,32446,32824,0.15673828,-0.015625,0.8227539,1.5370774535620002,-0.15322890625,8.068459533435,430485154.0,-1036504283,-132.8,6.129,37.08,31823,32733,32479,2.317073,15.426829,57.19512,32746,32478,31287,3.69,4.88,-0.31,2.0,0.0,1.0,1.0
964868661,714,2020-07-28/964868661s714ms.jpg,964868661s714ms.jpg,224,30679,32977,32771,-0.10253906,0.010253906,1.0341797,-1.005564672749,0.1005564672748999,10.141838355005,430483972.0,-1036505817,-132.2,5.83,31.42,32296,32765,32472,0.36585367,15.853659,28.353659000000004,32739,32536,31273,3.03,4.97,-0.3,2.0,0.0,1.0,1.0
964868661,714,2020-07-28/964868661s714ms.jpg,964868661s714ms.jpg,467,30770,32779,34185,-0.005859375,-0.6801758000000001,0.9897461,-0.05746083984375,-6.67024600907,9.706093591565,430485083.0,-1036504413,-132.8,6.1,35.98,31844,32919,32440,-9.02439,17.804878,55.914635,32745,32482,31287,3.58,4.93,-0.31,2.0,0.0,1.0,1.0
964868661,714,2020-07-28/964868661s714ms.jpg,964868661s714ms.jpg,417,32993,32822,33598,-0.026855469,-0.3935547,-0.095703125,-0.26336218506885,-3.859453198755,-0.93852705078125,430484874.0,-1036504730,-132.60000000000002,5.937,33.81,31826,32811,32341,-2.4390244,23.841463,57.012196,32741,32486,31284,3.3,4.93,-0.31,2.0,0.0,1.0,1.0
964868661,714,2020-07-28/964868661s714ms.jpg,964868661s714ms.jpg,284,30922,32973,32841,-0.10058594,-0.023925781,0.91552734,-0.986411108501,-0.23463176024365,8.978256188810999,430484278.0,-1036505399,-132.39999999999998,5.908,33.6,32272,32873,32505,-6.219512,13.841463,29.817074,32737,32511,31280,3.26,4.92,-0.31,2.0,0.0,1.0,1.0
964868661,714,2020-07-28/964868661s714ms.jpg,964868661s714ms.jpg,294,30629,32988,32773,-0.107910156,0.009277344,1.0585938,-1.0582371313374002,0.0909796655376,10.38125888877,430484333.0,-1036505342,-132.39999999999998,5.9270000000000005,33.65,32224,32905,32494,-8.170732000000001,14.512196,32.743904,32739,32520,31280,3.28,4.93,-0.31,2.0,0.0,1.0,1.0
964868679,698,2020-07-28/964868679s698ms.jpg,964868679s698ms.jpg,636,30871,33279,34822,-0.25,-0.99121094,0.9404296999999998,-2.4516625,-9.720458764751,9.222464917505,430498304.0,-1036460269,-86.60000000000002,0.8009999999999999,56.27,31537,32624,32441,8.963414,17.743902,74.63415,32763,32439,31270,0.66,0.44,-0.22,2.0,0.0,1.0,1.0
964868679,698,2020-07-28/964868679s698ms.jpg,964868679s698ms.jpg,666,30010,32746,32052,0.010253906,0.36132812,1.3608398000000002,0.1005564672748999,3.543418407998,13.34527962467,430498188.0,-1036460304,-86.0,0.7140000000000001,56.27,31482,32443,32380,20.0,21.463415,77.98781,32762,32423,31275,0.59,0.39,-0.22,2.0,0.0,1.0,1.0
964868679,698,2020-07-28/964868679s698ms.jpg,964868679s698ms.jpg,616,26161,32709,32255,0.028320312,0.26220703,3.2402344,0.2777273876748,2.5713725707495,31.775844678759995,430498379.0,-1036460244,-87.0,0.929,56.27,31572,32986,32333,-13.109756,24.329268,72.5,32769,32470,31263,0.77,0.51,-0.22,2.0,0.0,1.0,1.0
964868679,698,2020-07-28/964868679s698ms.jpg,964868679s698ms.jpg,586,34292,32322,29947,0.21728516,1.3891601999999998,-0.72998047,2.130839514314,13.62300787533,-7.158662976125499,430498467.0,-1036460210,-87.80000000000003,0.975,56.27,31657,32962,31805,-11.646341,56.52439,67.31707,32760,32448,31271,0.81,0.54,-0.22,2.0,0.0,1.0,1.0
964868679,698,2020-07-28/964868679s698ms.jpg,964868679s698ms.jpg,536,33159,33521,31879,-0.36816406,0.44580078,-0.17675781,-3.610456078999,4.371812219187,-1.7334019774364997,430498636.0,-1036460180,-89.0,1.056,56.27,31653,32853,32468,-5.0,16.09756,67.560974,32758,32462,31270,0.87,0.58,-0.23,2.0,0.0,1.0,1.0
964868679,698,2020-07-28/964868679s698ms.jpg,964868679s698ms.jpg,987,30644,32936,32789,-0.08251953,0.0014648438,1.0512695,-0.8092401488744999,0.01436521045127,10.309432042175,430497471.0,-1036460204,-80.60000000000002,1.055,56.27,32066,32428,32915,20.914635,-11.158537,42.378048,32760,32417,31290,0.87,0.58,-0.13,2.0,0.0,1.0,1.0
964868679,698,2020-07-28/964868679s698ms.jpg,964868679s698ms.jpg,946,29479,32262,33821,0.24658203,-0.5024414,1.6201172,2.4181436644995,-4.92726695531,15.887922339379998,430497445.0,-1036460253,-80.60000000000002,1.072,56.27,31722,32585,32653,11.341463,4.8170733,63.353657,32754,32389,31295,0.89,0.59,-0.13,2.0,0.0,1.0,1.0
964868679,698,2020-07-28/964868679s698ms.jpg,964868679s698ms.jpg,936,30424,32107,33221,0.32226562,-0.20947266,1.1586914,3.160346142373,-2.054225061189,11.36288101781,430497438.0,-1036460264,-80.60000000000002,1.074,56.27,31932,32463,32804,18.780487,-4.390244,50.548782,32756,32395,31291,0.89,0.59,-0.13,2.0,0.0,1.0,1.0
964868679,698,2020-07-28/964868679s698ms.jpg,964868679s698ms.jpg,896,27588,34247,32511,-0.72265625,0.13720703,2.543457,-7.0868369140624985,1.3455413207495002,24.94279258905,430497411.0,-1036460305,-80.60000000000002,1.069,56.27,32033,32801,33070,-1.8292683,-20.609756,44.390244,32757,32400,31291,0.88,0.59,-0.14,2.0,0.0,1.0,1.0
964868679,698,2020-07-28/964868679s698ms.jpg,964868679s698ms.jpg,786,29258,32153,35656,0.2998047,-1.3984375,1.7280273000000002,2.9400797612550003,-13.713987109375,16.946158921545,430497815.0,-1036460306,-83.0,1.004,56.27,31493,32203,32471,34.634148,15.914634,77.31707,32771,32434,31273,0.83,0.55,-0.18,2.0,0.0,1.0,1.0
964868679,698,2020-07-28/964868679s698ms.jpg,964868679s698ms.jpg,156,26265,32639,31048,0.0625,0.8515625,3.1894531,0.612915625,8.350975390624999,31.277850243115,430500100.0,-1036460245,-100.60000000000002,1.324,56.27,32186,33135,32858,-22.195122,-7.6829267,35.060974,32765,32499,31252,1.1,0.73,-0.24,2.0,0.0,1.0,1.0
964868679,698,2020-07-28/964868679s698ms.jpg,964868679s698ms.jpg,135,30559,32929,32063,-0.07910156,0.35595703,1.0927733999999998,-0.7757213133740001,3.4907460082495,10.71644626311,430500178.0,-1036460293,-101.0,1.277,56.27,31963,32883,32603,-6.8292685,7.865854,48.658535,32761,32482,31256,1.06,0.7,-0.24,2.0,0.0,1.0,1.0
964868679,698,2020-07-28/964868679s698ms.jpg,964868679s698ms.jpg,45,27981,33508,33469,-0.3618164,-0.3305664,2.3515625,-3.5482067990599995,-3.24174898656,23.060950390625,430500627.0,-1036460363,-103.8,1.146,56.27,32224,32924,32191,-9.329268,32.987804,32.743904,32763,32519,31244,0.95,0.63,-0.24,2.0,0.0,1.0,1.0
964868679,698,2020-07-28/964868679s698ms.jpg,964868679s698ms.jpg,35,31134,32667,31372,0.048828125,0.6933594,0.8120116999999999,0.47884033203125,6.79953296001,7.963114537805001,430500674.0,-1036460368,-104.0,1.159,56.27,32265,33123,32275,-21.463415,27.865854,30.243902,32758,32497,31247,0.96,0.64,-0.24,2.0,0.0,1.0,1.0
964868679,698,2020-07-28/964868679s698ms.jpg,964868679s698ms.jpg,5,27959,33883,31314,-0.5449219,0.7216796999999999,2.3623047,-5.343858350634999,7.077260230005,23.166295386255,430500852.0,-1036460370,-105.0,1.296,56.27,32390,33716,32571,-57.621952,9.817073,22.621952,32755,32502,31251,1.07,0.71,-0.24,2.0,0.0,1.0,1.0
964868679,698,2020-07-28/964868679s698ms.jpg,964868679s698ms.jpg,246,32538,30305,33765,1.2021483999999998,-0.47509766,0.12646484,11.789048606860002,-4.659116467439,1.240196423186,430499749.0,-1036460227,-98.2,1.236,56.27,32695,32523,32760,15.121951,-1.7073171000000005,4.02439,32758,32479,31266,1.02,0.68,-0.23,2.0,0.0,1.0,1.0
964868679,698,2020-07-28/964868679s698ms.jpg,964868679s698ms.jpg,466,24514,33708,31447,-0.45947266,0.6567383000000001,4.0444336000000005,-4.505887561189,6.440402649695,39.66234476344,430499188.0,-1036460173,-92.60000000000002,1.43,56.27,32177,32654,32465,7.134146,16.280487,35.609756,32760,32487,31260,1.18,0.79,-0.23,2.0,0.0,1.0,1.0
964868679,698,2020-07-28/964868679s698ms.jpg,964868679s698ms.jpg,406,28699,32132,33303,0.3100585999999999,-0.24951172,2.0009766,3.0406361696900004,-2.446874108938,19.62287717439,430499319.0,-1036460243,-93.8,1.249,56.27,33076,32715,32517,3.4146342000000005,13.109756,-19.207317,32758,32499,31260,1.03,0.69,-0.23,2.0,0.0,1.0,1.0
964868679,698,2020-07-28/964868679s698ms.jpg,964868679s698ms.jpg,346,31271,33199,34091,-0.2109375,-0.63427734,0.7451171999999999,-2.068590234375,-6.220135876311001,7.30710358938,430499465.0,-1036460246,-95.39999999999998,1.154,56.27,33613,32753,32913,1.097561,-11.036586,-51.951218,32764,32523,31253,0.95,0.64,-0.23,2.0,0.0,1.0,1.0
964868679,698,2020-07-28/964868679s698ms.jpg,964868679s698ms.jpg,316,30126,31638,34997,0.55126953,-1.0766601999999998,1.3041992,5.4061073363744985,-10.55842975033,12.78982508468,430499524.0,-1036460221,-96.2,1.145,56.27,33202,32423,32734,21.219513,-0.12195122,-26.890244,32756,32486,31266,0.95,0.63,-0.23,2.0,0.0,1.0,1.0
964868681,700,2020-07-28/964868681s700ms.jpg,964868681s700ms.jpg,665,31022,33212,32699,-0.21728516,0.0454101559999999,0.8666992,-2.130839514314,0.4453215063374,8.499415709680001,430500152.0,-1036458913,-81.60000000000002,1.348,56.27,32272,32863,32598,-5.609756,8.170732000000001,29.817074,32742,32463,31320,1.12,0.74,-0.15,3.0,1.0,2.0,3.0
964868681,700,2020-07-28/964868681s700ms.jpg,964868681s700ms.jpg,520,32174,33182,33372,-0.20263672,-0.28320312,0.30419922,-1.987187390188,-2.777273876748,2.983175280813,430499871.0,-1036458957,-81.39999999999998,1.4380000000000002,56.27,32834,32619,32807,9.268292,-4.5731707,-4.4512196,32730,32441,31333,1.19,0.79,-0.15,3.0,1.0,2.0,3.0
964868681,700,2020-07-28/964868681s700ms.jpg,964868681s700ms.jpg,615,30166,32962,33152,-0.095214844,-0.17578125,1.284668,-0.9337386499126,-1.7238251953125,12.5982894422,430500065.0,-1036458901,-81.39999999999998,1.385,56.27,32523,32923,32695,-9.268292,2.2560976000000004,14.512196,32739,32467,31326,1.15,0.76,-0.15,3.0,1.0,2.0,3.0
964868681,700,2020-07-28/964868681s700ms.jpg,964868681s700ms.jpg,605,31303,32921,33152,-0.07519531,-0.17578125,0.7294921999999999,-0.7374140868115,-1.7238251953125,7.153874683130001,430500043.0,-1036458904,-81.39999999999998,1.382,56.27,32563,32799,32763,-1.7073171000000005,-1.8902439,12.073171,32744,32484,31322,1.14,0.76,-0.15,3.0,1.0,2.0,3.0
964868681,700,2020-07-28/964868681s700ms.jpg,964868681s700ms.jpg,530,30596,33197,32721,-0.20996094,0.03466797,1.074707,-2.059013452251,0.3399766480005,10.53927540155,430499891.0,-1036458949,-81.39999999999998,1.4340000000000002,56.27,32870,32648,32785,7.5,-3.2317073,-6.6463413000000005,32728,32435,31332,1.19,0.79,-0.15,3.0,1.0,2.0,3.0
964868681,700,2020-07-28/964868681s700ms.jpg,964868681s700ms.jpg,768,30239,32727,30670,0.01953125,1.0361328,1.2490233999999998,0.1915361328125,10.16099172312,12.24873532561,430500360.0,-1036458907,-81.60000000000002,1.296,56.27,31838,32783,32965,-0.73170733,-14.207317000000002,56.280487,32730,32413,31332,1.07,0.71,-0.16,3.0,1.0,2.0,3.0
964868681,700,2020-07-28/964868681s700ms.jpg,964868681s700ms.jpg,510,32282,32903,33570,-0.06640625,-0.3798828,0.25146484,-0.6512228515624999,-3.72537766062,2.466027673186,430499852.0,-1036458963,-81.39999999999998,1.435,56.27,32784,32743,32855,1.7073171000000005,-7.5,-1.402439,32733,32454,31328,1.19,0.79,-0.15,3.0,1.0,2.0,3.0
964868681,700,2020-07-28/964868681s700ms.jpg,964868681s700ms.jpg,979,22329,33437,31018,-0.32714844,0.86621094,5.111328,-3.208230249126,8.494627514750999,50.1250047312,430500790.0,-1036458852,-82.0,1.1740000000000002,56.27,33303,33139,33812,-22.439024,-65.85365999999999,-33.048782,32730,32466,31333,0.97,0.65,-0.16,3.0,1.0,2.0,3.0
964868681,700,2020-07-28/964868681s700ms.jpg,964868681s700ms.jpg,928,33497,31873,35103,0.43652344,-1.128418,-0.34179688,4.280832592876,-11.066000379699998,-3.351882373252,430500686.0,-1036458858,-82.0,1.198,56.27,32872,32256,33319,31.40244,-35.792683000000004,-6.768292999999999,32721,32427,31342,0.99,0.66,-0.16,3.0,1.0,2.0,3.0
964868681,700,2020-07-28/964868681s700ms.jpg,964868681s700ms.jpg,908,29384,32612,33452,0.075683594,-0.32226562,1.6665039,0.7422025171000999,-3.160346142373,16.342820470935,430500637.0,-1036458856,-82.0,1.208,56.27,32706,32419,33316,21.463415,-35.609756,3.3536584,32729,32442,31336,1.0,0.67,-0.16,3.0,1.0,2.0,3.0
964868681,700,2020-07-28/964868681s700ms.jpg,964868681s700ms.jpg,878,31222,32818,33062,-0.024902344,-0.13183594,0.76904297,-0.2442085717876,-1.292868921001,7.541735241750501,430500572.0,-1036458853,-81.80000000000003,1.23,56.27,32573,32486,33142,17.378048,-25.0,11.463414,32729,32430,31334,1.02,0.68,-0.16,3.0,1.0,2.0,3.0
964868681,700,2020-07-28/964868681s700ms.jpg,964868681s700ms.jpg,828,30644,32626,32976,0.068847656,-0.08984375,1.0512695,0.6751648657123999,-0.8810662109374999,10.309432042175,430500476.0,-1036458869,-81.80000000000003,1.284,56.27,32168,32681,33065,5.487805000000001,-20.304878,36.158535,32734,32429,31329,1.06,0.71,-0.16,3.0,1.0,2.0,3.0
964868681,700,2020-07-28/964868681s700ms.jpg,964868681s700ms.jpg,888,30473,32588,32450,0.087402344,0.16699219,1.1347656000000002,0.8571241967875999,1.6376339600635,11.12824907124,430500596.0,-1036458856,-81.80000000000003,1.222,56.27,32576,32397,33184,22.804878,-27.560976,11.280488,32734,32452,31332,1.01,0.67,-0.16,3.0,1.0,2.0,3.0
964868681,700,2020-07-28/964868681s700ms.jpg,964868681s700ms.jpg,156,32700,32862,33882,-0.04638672,-0.53222656,0.04736328,-0.454898327688,-5.219359594624001,0.464475109812,430499216.0,-1036459111,-81.0,1.404,56.27,33597,32645,32892,7.6829267,-9.756098,-50.97561,32729,32459,31328,1.16,0.77,-0.14,3.0,1.0,2.0,3.0
964868681,700,2020-07-28/964868681s700ms.jpg,964868681s700ms.jpg,106,29091,32818,32394,-0.024902344,0.19433594,1.8095703,-0.2442085717876,1.905784546001,17.745822582495002,430499112.0,-1036459088,-81.0,1.482,56.27,33623,32881,33095,-6.707317,-22.134146,-52.560974,32735,32472,31326,1.23,0.82,-0.14,3.0,1.0,2.0,3.0
