utc_s (s),utc_ms (ms)_x,file_path,filename,utc_ms (ms)_y,accel_x (counts),accel_y (counts),accel_z (counts),calibrated_accel_x (g),calibrated_accel_y (g),calibrated_accel_z (g),calibrated_accel_x (m/s^2),calibrated_accel_y (m/s^2),calibrated_accel_z (m/s^2),position_lat (semicircles),position_long (semicircles),enhanced_altitude (m),enhanced_speed (m/s),heading (degrees),gyro_x (counts),gyro_y (counts),gyro_z (counts),calibrated_gyro_x (deg/s),calibrated_gyro_y (deg/s),calibrated_gyro_z (deg/s),mag_x (counts),mag_y (counts),mag_z (counts),velocity (m/s)1,velocity (m/s)2,velocity (m/s)3,tsm1_original,tsm1_k2,tsm1_k3,tsm1_k4
964868685,704,2020-07-28/964868685s704ms.jpg,964868685s704ms.jpg,703,30079,33475,32054,-0.34570312,0.36035156,1.3271483999999998,-3.3901895017479995,3.533841625874,13.01487985686,430511210.0,-1036451383,-90.0,2.253,58.39,33431,33070,33126,-18.231707,-24.024391,-40.853657,32718,32475,31340,1.91,1.18,-0.27,3.0,1.0,2.0,3.0
964868685,704,2020-07-28/964868685s704ms.jpg,964868685s704ms.jpg,652,34946,32885,30413,-0.057617188,1.1616211,-1.0493164,-0.5650315967001999,11.391611560315,-10.290278674059998,430511083.0,-1036451563,-89.80000000000003,2.249,59.89,33403,33013,32759,-14.756098,-1.6463414,-39.146343,32718,32462,31346,1.94,1.12,-0.27,3.0,1.0,2.0,3.0
964868685,704,2020-07-28/964868685s704ms.jpg,964868685s704ms.jpg,572,31338,32613,30938,0.07519531,0.90527344,0.71240234,0.7374140868115,8.877699780376,6.986280407561001,430510933.0,-1036451850,-89.60000000000002,2.092,54.51,32357,32367,33119,24.634146,-23.59756,24.634146,32716,32425,31351,1.7,1.21,-0.26,3.0,1.0,2.0,3.0
964868685,704,2020-07-28/964868685s704ms.jpg,964868685s704ms.jpg,612,32189,33242,36068,-0.2319336,-1.5996093999999998,0.296875,-2.27449163844,-15.686809522510002,2.91134921875,430510998.0,-1036451699,-89.60000000000002,2.214,59.21,32637,32135,33201,38.780487,-28.59756,7.560975599999999,32714,32448,31352,1.9,1.13,-0.27,3.0,1.0,2.0,3.0
964868685,704,2020-07-28/964868685s704ms.jpg,964868685s704ms.jpg,532,30302,32494,33885,0.13330078,-0.5336914,1.2182617,1.307234094187,-5.233724767809999,11.947066100305,430510855.0,-1036451980,-89.39999999999998,2.069,53.72,32105,32490,32948,17.134145999999998,-13.170732,40.0,32724,32445,31340,1.66,1.22,-0.26,3.0,1.0,2.0,3.0
964868685,704,2020-07-28/964868685s704ms.jpg,964868685s704ms.jpg,936,35477,32928,31260,-0.07861328,0.7480469,-1.3085938,-0.770932922312,7.335834131884999,-12.832921388769998,430511841.0,-1036450211,-90.60000000000002,2.44,65.1,32358,32820,32796,-2.987805,-3.902439,24.573172,32731,32434,31329,2.21,1.02,-0.27,3.0,1.0,2.0,3.0
964868685,704,2020-07-28/964868685s704ms.jpg,964868685s704ms.jpg,916,30435,32072,33397,0.33935547,-0.29541016,1.1533203,3.3279403198755,-2.8969840455639995,11.310208519995,430511819.0,-1036450292,-90.39999999999998,2.476,64.66,32336,33070,33019,-18.231707,-17.5,25.914635,32736,32456,31327,2.23,1.05,-0.27,3.0,1.0,2.0,3.0
964868685,704,2020-07-28/964868685s704ms.jpg,964868685s704ms.jpg,906,27826,32283,32768,0.23632812,0.01171875,2.427246,2.317587157998,0.1149216796875,23.8031519859,430511798.0,-1036450337,-90.39999999999998,2.496,64.23,32304,33192,32983,-25.670732,-15.304878,27.865854,32740,32472,31322,2.24,1.08,-0.27,3.0,1.0,2.0,3.0
964868685,704,2020-07-28/964868685s704ms.jpg,964868685s704ms.jpg,753,31048,33664,34804,-0.43798828,-0.9824219,0.8540039,-4.295197766062,-9.634267725635,8.374917345935,430511439.0,-1036451083,-90.0,2.422,57.83,32778,33222,32617,-27.5,7.012194999999999,-1.0365853,32726,32481,31337,2.05,1.28,-0.27,3.0,1.0,2.0,3.0
964868685,704,2020-07-28/964868685s704ms.jpg,964868685s704ms.jpg,886,29838,32408,31187,0.17529297,0.7836914,1.4448242,1.7190368042504998,7.685387267809999,14.16888524093,430511754.0,-1036450435,-90.39999999999998,2.536,64.15,32245,33104,32842,-20.304878,-6.707317,31.463415,32736,32465,31326,2.28,1.1,-0.27,3.0,1.0,2.0,3.0
964868685,704,2020-07-28/964868685s704ms.jpg,964868685s704ms.jpg,854,32187,31942,32959,0.40283203,-0.08154297,0.29785156,3.9504327269995,-0.7996633667505001,2.920926000874,430511672.0,-1036450581,-90.39999999999998,2.585,64.46,32125,33263,32747,-30.0,-0.91463417,38.780487,32734,32463,31327,2.33,1.11,-0.27,3.0,1.0,2.0,3.0
964868685,704,2020-07-28/964868685s704ms.jpg,964868685s704ms.jpg,844,30124,32183,32397,0.28515625,0.1928711,1.3051758,2.7964275390625,1.891419372815,12.79940225907,430511644.0,-1036450628,-90.39999999999998,2.596,64.48,32219,33315,32755,-33.17073,-1.402439,33.048782,32736,32476,31323,2.34,1.11,-0.27,3.0,1.0,2.0,3.0
964868685,704,2020-07-28/964868685s704ms.jpg,964868685s704ms.jpg,814,32738,33376,33325,-0.29736328,-0.2602539,0.028808594,-2.916137609812,-2.5522189084349995,0.2825157983500999,430511592.0,-1036450760,-90.2,2.61,63.03,32562,33368,32475,-36.402440000000006,15.670732,12.134147,32724,32454,31335,2.32,1.18,-0.27,3.0,1.0,2.0,3.0
964868685,704,2020-07-28/964868685s704ms.jpg,964868685s704ms.jpg,793,33617,32463,30698,0.1484375,1.0224609,-0.40039062,1.455674609375,10.026916184985,-3.926490673623,430511569.0,-1036450838,-90.2,2.612,61.69,32703,33561,32806,-48.17073,-4.512194999999999,3.5365853,32721,32449,31337,2.29,1.23,-0.27,3.0,1.0,2.0,3.0
964868685,704,2020-07-28/964868685s704ms.jpg,964868685s704ms.jpg,118,30658,32971,33117,-0.099609375,-0.1586914,1.0444336,-0.97683427734375,-1.5562310178100005,10.24239476344,430509636.0,-1036453509,-88.39999999999998,1.795,75.36,33259,32794,32340,-1.402439,23.90244,-30.365854,32719,32526,31329,1.73,0.45,-0.26,3.0,1.0,2.0,3.0
964868685,704,2020-07-28/964868685s704ms.jpg,964868685s704ms.jpg,108,30480,33232,34760,-0.22705078,-0.9609375,1.1313476999999998,-2.226607531687,-9.423577734375,11.094730922205,430509617.0,-1036453543,-88.39999999999998,1.788,75.61,33430,32621,32389,9.146341,20.914635,-40.792683,32713,32512,31333,1.73,0.44,-0.26,3.0,1.0,2.0,3.0
964868685,704,2020-07-28/964868685s704ms.jpg,964868685s704ms.jpg,47,29417,32673,32635,0.045898438,0.076660156,1.6503906000000004,0.4501099170127,0.7517793188373999,16.184802977489998,430509540.0,-1036453711,-88.19999999999997,1.817,76.9,33675,32681,32681,5.487805000000001,3.109756,-55.73171,32712,32505,31332,1.76,0.41,-0.26,3.0,1.0,2.0,3.0
964868685,704,2020-07-28/964868685s704ms.jpg,964868685s704ms.jpg,37,29445,32793,33025,-0.0126953125,-0.11376953,1.6367188,-0.124498486328125,-1.1156979613745,16.050728420019993,430509529.0,-1036453740,-88.19999999999997,1.816,76.79,33692,32642,32812,7.865854,-4.878049,-56.76829,32716,32520,31327,1.76,0.41,-0.26,3.0,1.0,2.0,3.0
964868685,704,2020-07-28/964868685s704ms.jpg,964868685s704ms.jpg,472,29834,33396,33041,-0.3071289,-0.12158203,1.4467773000000002,-3.0119056271849995,-1.1923124144995,14.188038609044998,430510744.0,-1036452150,-89.19999999999997,2.099,53.42,31938,32750,32727,1.2804878,0.30487806,50.182926,32729,32452,31335,1.68,1.25,-0.26,3.0,1.0,2.0,3.0
964868685,704,2020-07-28/964868685s704ms.jpg,964868685s704ms.jpg,452,30112,33147,32722,-0.18554688,0.034179688,1.3110351999999998,-1.819593310752,0.3351882373252,12.85686334408,430510704.0,-1036452201,-89.19999999999997,2.105,54.44,32064,32791,32737,-1.2195122,-0.30487806,42.5,32728,32453,31335,1.71,1.22,-0.26,3.0,1.0,2.0,3.0
964868643,729,2020-07-28/964868643s729ms.jpg,964868643s729ms.jpg,712,31772,32469,34057,0.14550781,-0.6176758000000001,0.5004883,1.4269441649364998,-6.057330384069999,4.908113587195,430439331.0,-1036520767,-62.600000000000016,4.552,346.42,32559,32468,32733,18.475609,-0.06097561,12.317073,32710,32500,31346,-1.06,4.42,-0.94,1.0,0.0,0.0,1.0
964868643,729,2020-07-28/964868643s729ms.jpg,964868643s729ms.jpg,651,29155,32915,32869,-0.072265625,-0.037597656,1.7783203,-0.70868369140625,-0.3687070532124,17.439364769995,430439303.0,-1036520439,-61.0,4.545,347.45,32632,32757,32709,0.85365856,1.402439,7.865854,32714,32507,31340,-0.98,4.43,-0.9,1.0,0.0,0.0,1.0
964868643,729,2020-07-28/964868643s729ms.jpg,964868643s729ms.jpg,631,30147,32640,32041,0.06201172,0.36669922,1.2939453,0.608127233938,3.5960909058129995,12.689268676245,430439193.0,-1036520376,-60.80000000000001,4.418,347.5,32682,32679,32678,5.609756,3.292683,4.8170733,32707,32480,31345,-0.95,4.31,-0.9,1.0,0.0,0.0,1.0
964868643,729,2020-07-28/964868643s729ms.jpg,964868643s729ms.jpg,752,30157,32779,33676,-0.005859375,-0.43164062,1.2890625,-0.05746083984375,-4.232948486122998,12.641384765624998,430439387.0,-1036520950,-63.399999999999984,4.504,345.3,32601,32738,32768,2.012195,-2.195122,9.756098,32703,32469,31352,-1.14,4.35,-0.96,1.0,0.0,0.0,1.0
964868643,729,2020-07-28/964868643s729ms.jpg,964868643s729ms.jpg,774,30587,32796,33410,-0.014160156,-0.3017578,1.0791016000000002,-0.1388636938374,-2.9592331293700003,10.582371705639998,430439515.0,-1036521149,-60.600000000000016,4.633,344.45,32566,32688,32774,5.060975599999999,-2.5609756,11.890244,32703,32472,31352,-1.24,4.46,-0.75,1.0,0.0,0.0,1.0
964868643,729,2020-07-28/964868643s729ms.jpg,964868643s729ms.jpg,974,31089,32944,33507,-0.08642578,-0.3491210999999999,0.8339844000000001,-0.8475473754369999,-3.423708435315,8.178593116259997,430440270.0,-1036522094,-56.80000000000001,4.533,347.44,32459,32870,32793,-6.0365853,-3.719512200000001,18.414635,32702,32473,31352,-0.98,4.42,-0.39,1.0,0.0,0.0,1.0
964868643,729,2020-07-28/964868643s729ms.jpg,964868643s729ms.jpg,964,30710,32982,33568,-0.10498047,-0.37890625,1.019043,-1.0295067261255,-3.7158009765625,9.99339803595,430440220.0,-1036522080,-56.80000000000001,4.561,346.82,32517,32887,32825,-7.0731707,-5.6707315000000005,14.878049,32706,32484,31347,-1.03,4.44,-0.39,1.0,0.0,0.0,1.0
964868643,729,2020-07-28/964868643s729ms.jpg,964868643s729ms.jpg,944,30484,33053,33117,-0.13964844,-0.1586914,1.1293945,-1.3694833741260002,-1.5562310178100005,11.075576573425,430440153.0,-1036522029,-56.600000000000016,4.674,345.25,32603,32855,32846,-5.121951,-6.9512196,9.634147,32708,32498,31348,-1.18,4.51,-0.39,1.0,0.0,0.0,1.0
964868643,729,2020-07-28/964868643s729ms.jpg,964868643s729ms.jpg,934,30791,33086,32818,-0.15576172,-0.0126953125,0.9794921999999998,-1.527500671438,-0.124498486328125,9.60553718313,430440116.0,-1036521977,-57.0,4.703,344.48,32618,32788,32834,-1.0365853,-6.219512,8.719512,32703,32475,31351,-1.25,4.53,-0.41,1.0,0.0,0.0,1.0
964868643,729,2020-07-28/964868643s729ms.jpg,964868643s729ms.jpg,854,29513,33034,32786,-0.1303711,0.0029296875,1.6035156000000002,-1.278503747815,0.028730419921875,15.725116258739998,430439903.0,-1036521550,-57.600000000000016,4.825,343.44,32529,32921,32822,-9.146341,-5.487805000000001,14.146341,32702,32470,31354,-1.37,4.62,-0.51,1.0,0.0,0.0,1.0
964868643,729,2020-07-28/964868643s729ms.jpg,964868643s729ms.jpg,491,30378,32745,32650,0.0107421875,0.06933594,1.1811523000000002,0.105344873046875,0.679953296001,11.583147202795,430439172.0,-1036519590,-57.80000000000001,4.556,353.4,32739,32668,32742,6.280488,-0.6097561,1.3414634,32717,32522,31334,-0.52,4.52,-0.82,1.0,0.0,0.0,1.0
964868643,729,2020-07-28/964868643s729ms.jpg,964868643s729ms.jpg,218,30875,32690,32915,0.037597656,-0.060058594,0.93847656,0.3687070532124,-0.5889736108500999,9.203311157124,430438841.0,-1036518203,-52.19999999999999,4.907,354.12,32575,32776,32947,-0.30487806,-13.109756,11.341463,32723,32505,31329,-0.5,4.88,-0.64,1.0,0.0,0.0,1.0
964868643,729,2020-07-28/964868643s729ms.jpg,964868643s729ms.jpg,198,30351,32670,34202,0.04736328,-0.68847656,1.1943358999999998,0.464475109812,-6.751648657124,11.712434153735002,430438848.0,-1036518052,-51.600000000000016,4.922,354.21,32539,32910,32951,-8.475610000000001,-13.353659,13.536585999999998,32714,32475,31336,-0.49,4.89,-0.63,1.0,0.0,0.0,1.0
964868643,729,2020-07-28/964868643s729ms.jpg,964868643s729ms.jpg,53,30406,32907,32628,-0.068359375,0.080078125,1.1674805,-0.6703764648437499,0.7852981445312499,11.449072645324998,430438227.0,-1036517525,-49.80000000000001,5.154,352.88,32687,32786,32832,-0.91463417,-6.097561,4.512194999999999,32717,32473,31335,-0.63,5.11,-0.57,1.0,0.0,0.0,1.0
964868643,729,2020-07-28/964868643s729ms.jpg,964868643s729ms.jpg,451,30004,32837,32551,-0.034179688,0.11767578,1.3637695,-0.3351882373252,1.154005187937,13.374010167175,430439121.0,-1036519371,-57.19999999999999,4.57,354.52,32748,32689,32797,5.0,-3.9634147,0.79268295,32707,32477,31343,-0.43,4.54,-0.81,1.0,0.0,0.0,1.0
964868643,729,2020-07-28/964868643s729ms.jpg,964868643s729ms.jpg,441,30230,32894,33118,-0.06201172,-0.15917969,1.253418,-0.608127233938,-1.5610195069385,12.2918316297,430439098.0,-1036519308,-57.0,4.578,355.01,32748,32744,32820,1.6463414,-5.365854,0.79268295,32710,32486,31341,-0.39,4.56,-0.8,1.0,0.0,0.0,1.0
964868643,729,2020-07-28/964868643s729ms.jpg,964868643s729ms.jpg,390,31981,32721,33576,0.022460938,-0.3828125,0.3984375,0.2202665576377,-3.754108203125,3.907337109375,430439039.0,-1036519083,-56.0,4.685,355.28,32609,32685,32741,5.243901999999999,-0.5487805,9.268292,32709,32482,31342,-0.38,4.66,-0.78,1.0,0.0,0.0,1.0
964868643,729,2020-07-28/964868643s729ms.jpg,964868643s729ms.jpg,421,29891,33289,32817,-0.2548828,-0.012207031,1.4189453,-2.4995464106200003,-0.1197100805561499,13.915099926245,430439060.0,-1036519203,-56.600000000000016,4.6160000000000005,355.62,32678,32813,32881,-2.5609756,-9.085366,5.060975599999999,32717,32510,31335,-0.35,4.6,-0.8,1.0,0.0,0.0,1.0
964868643,729,2020-07-28/964868643s729ms.jpg,964868643s729ms.jpg,278,30096,33109,32593,-0.16699219,0.09716797,1.3188476999999998,-1.6376339600635,0.9528922730005,12.933477797205,430439079.0,-1036518424,-53.600000000000016,4.977,355.85,32678,32723,32997,2.9268293,-16.158537,5.060975599999999,32720,32497,31332,-0.36,4.96,-0.7,1.0,0.0,0.0,1.0
964868643,729,2020-07-28/964868643s729ms.jpg,964868643s729ms.jpg,368,31683,32469,33030,0.14550781,-0.11621094,0.5439453000000001,1.4269441649364998,-1.139640014751,5.334281176245,430439017.0,-1036518993,-55.600000000000016,4.716,355.1,32625,32570,32826,12.256098,-5.731707,8.292683,32712,32484,31338,-0.4,4.69,-0.77,1.0,0.0,0.0,1.0
964868620,706,2020-07-28/964868620s706ms.jpg,964868620s706ms.jpg,724,30761,32817,33499,-0.024414062,-0.34521484,0.9941406,-0.2394201611122999,-3.385401110686,9.74918891499,430419360.0,-1036536397,-41.80000000000001,1.671,60.14,32798,32753,32665,1.097561,4.0853660000000005,-2.2560976000000004,32733,32575,31245,1.44,0.83,-0.08,1.0,0.0,0.0,0.0
964868620,706,2020-07-28/964868620s706ms.jpg,964868620s706ms.jpg,714,30196,32759,33202,0.00390625,-0.20019531,1.2700195,0.0383072265625,-1.9632453368115,12.454636729675,430419352.0,-1036536410,-41.80000000000001,1.699,60.68,32780,32784,32671,-0.79268295,3.719512200000001,-1.1585366,32729,32562,31248,1.48,0.83,-0.07,1.0,0.0,0.0,0.0
964868620,706,2020-07-28/964868620s706ms.jpg,964868620s706ms.jpg,633,31130,32847,33480,-0.0390625,-0.3359375,0.81396484,-0.383072265625,-3.294421484375,7.982268298186001,430419296.0,-1036536575,-41.60000000000002,1.867,64.87,32628,32741,32740,1.8292683,-0.4878049,8.109755999999999,32726,32553,31252,1.69,0.79,-0.07,1.0,0.0,0.0,0.0
964868620,706,2020-07-28/964868620s706ms.jpg,964868620s706ms.jpg,541,32146,32903,34115,-0.06640625,-0.6459961,0.3178710999999999,-0.6512228515624999,-6.335057654064999,3.117250622815,430419239.0,-1036536784,-41.60000000000002,2.083,65.33,32593,32821,32554,-3.0487804,10.853659,10.243902,32724,32548,31251,1.89,0.86,-0.06,1.0,0.0,0.0,0.0
964868620,706,2020-07-28/964868620s706ms.jpg,964868620s706ms.jpg,623,30784,32826,33599,-0.028808594,-0.39404297,0.98291016,-0.2825157983500999,-3.8642414917505,9.639055920564,430419295.0,-1036536602,-41.60000000000002,1.888,64.17,32576,32775,32829,-0.24390244,-5.914634,11.280488,32727,32561,31252,1.69,0.82,-0.06,1.0,0.0,0.0,0.0
964868620,706,2020-07-28/964868620s706ms.jpg,964868620s706ms.jpg,744,31010,32434,32848,0.16259766,-0.02734375,0.8725586,1.594538342439,-0.2681505859375,8.55687679469,430419331.0,-1036536340,-41.80000000000001,1.614,59.1,32862,32747,32674,1.4634147,3.5365853,-6.1585364,32729,32557,31248,1.38,0.82,-0.08,1.0,0.0,0.0,0.0
964868620,706,2020-07-28/964868620s706ms.jpg,964868620s706ms.jpg,764,30765,33169,33350,-0.19628906,-0.27246094,0.9921875,-1.924938110249,-2.6719290772510003,9.730035546875,430419336.0,-1036536304,-42.0,1.5619999999999998,56.84,32862,32770,32733,0.06097561,-0.06097561,-6.1585364,32728,32555,31251,1.3,0.85,-0.08,1.0,0.0,0.0,0.0
964868620,706,2020-07-28/964868620s706ms.jpg,964868620s706ms.jpg,754,30716,32629,32857,0.06738281,-0.03173828,1.0161133,0.6607996336865,-0.311246203562,9.964667493445,430419333.0,-1036536320,-42.0,1.588,58.04,32849,32743,32747,1.7073171000000005,-0.91463417,-5.365854,32728,32556,31250,1.34,0.84,-0.08,1.0,0.0,0.0,0.0
964868620,706,2020-07-28/964868620s706ms.jpg,964868620s706ms.jpg,854,31144,33279,33180,-0.25,-0.18945312,0.8071289,-2.4516625,-1.857900439248,7.915230627185,430419411.0,-1036536207,-42.0,1.338,49.11,32634,32756,32668,0.91463417,3.902439,7.743902,32734,32575,31245,1.01,0.87,-0.09,1.0,0.0,0.0,0.0
964868620,706,2020-07-28/964868620s706ms.jpg,964868620s706ms.jpg,784,30349,32927,32625,-0.078125,0.08154297,1.1953125,-0.7661445312499999,0.7996633667505001,11.722011328125,430419351.0,-1036536274,-42.0,1.517,54.86,32860,32834,32677,-3.8414633,3.3536584,-6.0365853,32733,32574,31246,1.24,0.87,-0.08,1.0,0.0,0.0,0.0
964868620,706,2020-07-28/964868620s706ms.jpg,964868620s706ms.jpg,118,31267,32969,33701,-0.09863281,-0.44384766,0.7470703000000001,-0.9672574461865,-4.352658654939,7.326256957495,430418984.0,-1036537868,-41.0,1.626,81.39,32776,32717,32724,3.292683,0.4878049,-0.91463417,32730,32583,31254,1.6,0.24,-0.04,1.0,0.0,0.0,0.0
964868620,706,2020-07-28/964868620s706ms.jpg,964868620s706ms.jpg,108,31075,32824,33367,-0.027832031,-0.28076172,0.8408203000000002,-0.27293898680615,-2.7533319214380003,8.245630394994999,430418981.0,-1036537892,-41.0,1.632,81.65,32784,32738,32735,2.012195,-0.18292683,-1.402439,32724,32562,31258,1.61,0.23,-0.04,1.0,0.0,0.0,0.0
964868620,706,2020-07-28/964868620s706ms.jpg,964868620s706ms.jpg,98,30988,32844,33475,-0.037597656,-0.3334960999999999,0.8833008,-0.3687070532124,-3.270479529065,8.66222179032,430418981.0,-1036537914,-41.0,1.64,81.61,32783,32729,32856,2.5609756,-7.560975599999999,-1.3414634,32723,32558,31260,1.62,0.23,-0.04,1.0,0.0,0.0,0.0
964868620,706,2020-07-28/964868620s706ms.jpg,964868620s706ms.jpg,48,30887,32920,33668,-0.07470703,-0.42773438,0.9326171999999998,-0.7326256957494999,-4.194641357627,9.14585046438,430418983.0,-1036538024,-41.0,1.5630000000000002,80.53,32768,32771,32738,0.0,-0.36585367,-0.42682928,32729,32568,31255,1.54,0.25,-0.04,1.0,0.0,0.0,0.0
964868620,706,2020-07-28/964868620s706ms.jpg,964868620s706ms.jpg,8,29598,32714,32285,0.025878906,0.2475586,1.5620117,0.2537853735249,2.42772054469,15.318102037805,430418991.0,-1036538109,-41.0,1.63,79.88,32784,32832,32945,-3.719512200000001,-12.987804,-1.402439,32731,32578,31256,1.6,0.28,-0.04,1.0,0.0,0.0,0.0
964868620,706,2020-07-28/964868620s706ms.jpg,964868620s706ms.jpg,260,31838,32940,33632,-0.084472656,-0.41015625,0.46826172,-0.8283937719623999,-4.0222587890625,4.592078796438,430419019.0,-1036537474,-41.19999999999999,1.69,75.83,32909,32752,32809,1.1585366,-4.6951220000000005,-9.02439,32725,32568,31254,1.63,0.41,-0.05,1.0,0.0,0.0,0.0
964868620,706,2020-07-28/964868620s706ms.jpg,964868620s706ms.jpg,451,31241,33167,33810,-0.1953125,-0.4970702999999999,0.7597656,-1.915361328125,-4.874594457495,7.45075532124,430419116.0,-1036537007,-41.39999999999998,2.068,73.21,32827,32731,32736,2.4390244,-0.24390244,-4.02439,32728,32572,31249,1.98,0.59,-0.05,1.0,0.0,0.0,0.0
964868620,706,2020-07-28/964868620s706ms.jpg,964868620s706ms.jpg,381,30639,32994,33409,-0.110839844,-0.30126953,1.0537108999999998,-1.0869675561626,-2.9544448363745,10.333373997485,430419057.0,-1036537180,-41.19999999999999,1.964,74.94,32849,32763,32758,0.4878049,-1.5853659,-5.365854,32725,32570,31249,1.89,0.51,-0.05,1.0,0.0,0.0,0.0
964868620,706,2020-07-28/964868620s706ms.jpg,964868620s706ms.jpg,491,31711,33145,33589,-0.18457031,-0.38916016,0.53027344,-1.8100164305615,-3.816357483064,5.200206030375999,430419180.0,-1036536897,-41.39999999999998,2.198,69.89,32799,32810,32688,-2.3780490000000003,2.682927,-2.317073,32729,32579,31249,2.06,0.75,-0.06,1.0,0.0,0.0,0.0
964868620,706,2020-07-28/964868620s706ms.jpg,964868620s706ms.jpg,350,30865,32472,33022,0.14404297,-0.11230469,0.9433594,1.4125789917504998,-1.1013327881885,9.25119546001,430419034.0,-1036537265,-41.19999999999999,1.759,74.8,32976,32797,32821,-1.5853659,-5.4268293,-13.109756,32727,32576,31247,1.69,0.46,-0.05,1.0,0.0,0.0,0.0
964868688,707,2020-07-28/964868688s707ms.jpg,964868688s707ms.jpg,697,31244,32382,33621,0.18798828,-0.40478516,0.7583008000000001,1.843535266062,-3.969586389314,7.43639054032,430515855.0,-1036442366,-98.8,2.456,46.66,31763,32860,32293,-5.4268293,26.768293,60.853657,32720,32478,31340,1.78,1.68,-0.31,3.0,1.0,2.0,3.0
964868688,707,2020-07-28/964868688s707ms.jpg,964868688s707ms.jpg,677,32262,32060,33881,0.34521484,-0.5317383000000001,0.26123047,3.385401110686,-5.214571399695,2.5617957886255,430515792.0,-1036442440,-98.60000000000002,2.437,47.42,31918,32867,32256,-5.8536587,29.024391,51.402440000000006,32713,32463,31344,1.79,1.64,-0.31,3.0,1.0,2.0,3.0
964868688,707,2020-07-28/964868688s707ms.jpg,964868688s707ms.jpg,737,30394,33059,31363,-0.14257812,0.6977539,1.1733398000000002,-1.398213720498,6.842628283435,11.50653274967,430515974.0,-1036442204,-98.8,2.415,45.66,31574,33195,32687,-25.853659,2.7439024,72.37805,32717,32447,31342,1.72,1.68,-0.31,3.0,1.0,2.0,3.0
964868688,707,2020-07-28/964868688s707ms.jpg,964868688s707ms.jpg,960,30904,32833,33552,-0.032226562,-0.37109375,0.9243164,-0.3160346142372999,-3.6391865234375,9.06444742406,430515525.0,-1036441792,-95.39999999999998,2.032,55.01,32884,32764,32771,0.42682928,-2.3780490000000003,-7.5,32728,32484,31332,1.66,1.16,-0.3,3.0,1.0,2.0,3.0
964868688,707,2020-07-28/964868688s707ms.jpg,964868688s707ms.jpg,890,31913,32998,31912,-0.11279297,0.4296875,0.43164062,-1.1061211792505,4.213794921875,4.232948486122998,430516408.0,-1036441666,-99.39999999999998,2.31,47.86,33172,32941,33041,-10.365853,-18.841463,-25.060976,32721,32460,31338,1.71,1.54,-0.31,3.0,1.0,2.0,3.0
964868688,707,2020-07-28/964868688s707ms.jpg,964868688s707ms.jpg,870,31753,33420,31902,-0.31884766,0.4345702999999999,0.5097656,-3.126827404939,4.261678832495,4.9990928212400005,430516327.0,-1036441722,-99.2,2.32,47.78,33225,33132,33249,-22.012196,-31.524391,-28.292683,32722,32465,31338,1.71,1.55,-0.31,3.0,1.0,2.0,3.0
964868688,707,2020-07-28/964868688s707ms.jpg,964868688s707ms.jpg,847,28299,33602,32401,-0.40771484,0.19091797,2.196289,-3.998316735686,1.8722657105005,21.53823752185,430516272.0,-1036441785,-99.2,2.337,47.17,32988,33292,33274,-31.768293,-33.048782,-13.841463,32727,32489,31330,1.71,1.58,-0.31,3.0,1.0,2.0,3.0
964868688,707,2020-07-28/964868688s707ms.jpg,964868688s707ms.jpg,837,28188,33408,33129,-0.31298828,-0.16455078,2.2504883,-3.069366516062,-1.613691906687,22.069751087195,430516246.0,-1036441815,-99.2,2.3480000000000003,46.74,32683,33168,33149,-24.207317,-25.426828,4.756098000000001,32723,32470,31335,1.7,1.6,-0.31,3.0,1.0,2.0,3.0
964868688,707,2020-07-28/964868688s707ms.jpg,964868688s707ms.jpg,797,36740,32266,34168,0.2446288999999999,-0.671875,-1.925293,2.398990002185,-6.58884296875,-18.88067459845,430516136.0,-1036441938,-99.0,2.385,46.24,31964,32368,32745,24.573172,-0.79268295,48.59756,32714,32437,31347,1.72,1.64,-0.31,3.0,1.0,2.0,3.0
964868688,707,2020-07-28/964868688s707ms.jpg,964868688s707ms.jpg,495,27337,33356,35537,-0.28759766,-1.340332,2.6660156,-2.8203695924389995,-13.1441668078,26.14468188374,430515309.0,-1036442959,-98.2,1.961,52.75,33263,32302,32775,28.59756,-2.621951,-30.609756,32708,32498,31337,1.56,1.18,-0.31,3.0,1.0,2.0,3.0
964868688,707,2020-07-28/964868688s707ms.jpg,964868688s707ms.jpg,203,29939,32473,31320,0.14355469,0.71875,1.3955078,1.4077906006885,7.048529687499999,13.68525656687,430514706.0,-1036443846,-97.2,2.157,56.06,30771,32565,32153,12.560976,35.30488,121.34146,32717,32508,31333,1.78,1.2,-0.31,3.0,1.0,2.0,3.0
964868688,707,2020-07-28/964868688s707ms.jpg,964868688s707ms.jpg,153,28168,32522,30149,0.119628906,1.2905273000000002,2.260254,1.1731588110248998,12.655749546544998,22.1655198891,430514687.0,-1036443997,-97.2,2.131,51.85,31550,33036,32200,-16.158537,32.439026,73.84146,32708,32505,31335,1.67,1.31,-0.31,3.0,1.0,2.0,3.0
964868688,707,2020-07-28/964868688s707ms.jpg,964868688s707ms.jpg,123,33891,32512,35775,0.12451172,-1.456543,-0.5341796999999999,1.221042858938,-14.28380741095,-5.238513355005,430514666.0,-1036444111,-97.0,2.129,47.59,32082,32215,32150,33.902440000000006,35.487804,41.402440000000006,32714,32547,31326,1.57,1.43,-0.31,3.0,1.0,2.0,3.0
964868688,707,2020-07-28/964868688s707ms.jpg,964868688s707ms.jpg,42,29734,34007,34607,-0.60546875,-0.88623047,1.4956055,-5.9376201171875,-8.690952038625499,14.666879676574998,430514642.0,-1036444310,-96.8,2.296,39.73,32754,32285,32108,29.634146,38.048782,0.42682928,32701,32540,31318,1.46,1.76,-0.31,3.0,1.0,2.0,3.0
964868688,707,2020-07-28/964868688s707ms.jpg,964868688s707ms.jpg,364,28210,34257,38925,-0.72753906,-2.994629,2.239746,-7.134720922749,-29.36727848285,21.964405110900003,430515100.0,-1036443337,-97.8,2.187,57.21,33038,31929,33207,51.341465,-28.963415,-16.890244,32708,32481,31342,1.83,1.18,-0.31,3.0,1.0,2.0,3.0
964868688,707,2020-07-28/964868688s707ms.jpg,964868688s707ms.jpg,344,31901,32242,33314,0.25634766,-0.2548828,0.4375,2.513911779939,-2.4995464106200003,4.290409374999999,430515037.0,-1036443416,-97.60000000000002,2.151,55.44,32795,32501,33179,16.463414999999998,-27.256098,-2.0731707,32719,32497,31332,1.77,1.21,-0.3,3.0,1.0,2.0,3.0
964868688,707,2020-07-28/964868688s707ms.jpg,964868688s707ms.jpg,254,31863,33109,35287,-0.16699219,-1.2182617,0.4560547,-1.6376339600635,-11.947066100305,4.4723688237550006,430514777.0,-1036443672,-97.39999999999998,2.169,58.77,31541,32971,32839,-12.195122,-6.52439,74.39024,32721,32489,31335,1.85,1.12,-0.31,3.0,1.0,2.0,3.0
964868688,707,2020-07-28/964868688s707ms.jpg,964868688s707ms.jpg,284,31834,33127,34380,-0.17578125,-0.7753906,0.47021484,-1.7238251953125,-7.60398422749,4.611232360686,430514830.0,-1036443590,-97.39999999999998,2.188,57.7,32105,32847,33258,-4.634146,-32.073170000000005,40.0,32715,32469,31341,1.84,1.16,-0.31,3.0,1.0,2.0,3.0
964868688,707,2020-07-28/964868688s707ms.jpg,964868688s707ms.jpg,274,32561,32745,34201,0.0107421875,-0.6879883000000001,0.115234375,0.105344873046875,-6.746860462195,1.13006318359375,430514811.0,-1036443615,-97.39999999999998,2.191,58.32,32021,32818,33234,-2.8658535,-30.609756,45.121952,32717,32478,31338,1.86,1.15,-0.31,3.0,1.0,2.0,3.0
964868683,702,2020-07-28/964868683s702ms.jpg,964868683s702ms.jpg,720,35083,32890,32425,-0.060058594,0.17919922,-1.1162108999999998,-0.5889736108500999,1.7573440308129995,-10.946289622485,430506623.0,-1036455860,-85.39999999999998,2.068,24.47,31699,32853,32384,-5.0,21.219513,64.756096,32740,32408,31323,0.85,1.88,-0.23,3.0,1.0,2.0,3.0
964868683,702,2020-07-28/964868683s702ms.jpg,964868683s702ms.jpg,559,30731,33429,32598,-0.3232422,0.09472656,1.0087891,-3.16992312063,0.928950219624,9.892841627515,430506174.0,-1036456033,-84.80000000000003,1.979,17.88,32491,32839,32367,-4.1463413000000005,22.256098,16.463414999999998,32727,32422,31337,0.6,1.88,-0.22,3.0,1.0,2.0,3.0
964868683,702,2020-07-28/964868683s702ms.jpg,964868683s702ms.jpg,940,30046,31754,28374,0.4946289000000001,2.1572266,1.3432617,4.850652502185,21.15516623689,13.172897350305,430507130.0,-1036455741,-85.80000000000003,1.821,20.58,32084,32695,33336,4.634146,-36.82927,41.280487,32734,32361,31324,0.64,1.7,-0.23,3.0,1.0,2.0,3.0
964868683,702,2020-07-28/964868683s702ms.jpg,964868683s702ms.jpg,920,29953,33910,33706,-0.55810547,-0.44628906,1.3886718999999998,-5.4731450073755,-4.3766006102490005,13.618219288135,430507087.0,-1036455754,-85.80000000000003,1.839,20.75,32128,32898,33464,-7.743902,-44.634148,38.59756,32733,32364,31326,0.65,1.71,-0.23,3.0,1.0,2.0,3.0
964868683,702,2020-07-28/964868683s702ms.jpg,964868683s702ms.jpg,900,28151,32728,33564,0.019042969,-0.37695312,2.2685547,0.18674773194385,-3.696647314248,22.246921948755,430507039.0,-1036455772,-85.60000000000002,1.867,20.39,31746,32458,33156,19.085365,-25.853659,61.890244,32730,32355,31328,0.65,1.74,-0.23,3.0,1.0,2.0,3.0
964868683,702,2020-07-28/964868683s702ms.jpg,964868683s702ms.jpg,890,32516,32037,34038,0.3564453,-0.60839844,0.13720703,3.495534301245,-5.966350561625999,1.3455413207495002,430507016.0,-1036455776,-85.60000000000002,1.889,20.23,31645,32266,32924,30.792683,-11.707317,68.04878000000001,32729,32353,31329,0.65,1.77,-0.23,3.0,1.0,2.0,3.0
964868683,702,2020-07-28/964868683s702ms.jpg,964868683s702ms.jpg,850,31614,32542,32612,0.10986328,0.087890625,0.5776366999999999,1.077390734812,0.86191259765625,5.664680944055,430506937.0,-1036455785,-85.60000000000002,1.974,22.39,31734,32204,32956,34.573170000000005,-13.658537,62.621952,32747,32406,31312,0.75,1.82,-0.23,3.0,1.0,2.0,3.0
964868683,702,2020-07-28/964868683s702ms.jpg,964868683s702ms.jpg,800,30681,33427,31365,-0.32226562,0.69677734,1.0332031,-3.160346142373,6.833051501311001,10.132261180614998,430506830.0,-1036455790,-85.39999999999998,2.056,26.15,31630,33050,32272,-17.012196,28.04878,68.96342,32737,32363,31321,0.9,1.84,-0.23,3.0,1.0,2.0,3.0
964868683,702,2020-07-28/964868683s702ms.jpg,964868683s702ms.jpg,4,30142,33248,32918,-0.23486328,-0.061523438,1.2963867,-2.303221984812,-0.6033388232626999,12.713210631555,430504418.0,-1036456957,-83.60000000000002,1.957,27.42,31663,33072,31888,-18.353659,51.463413,66.95121999999999,32709,32527,31318,0.9,1.73,-0.2,3.0,1.0,2.0,3.0
964868683,702,2020-07-28/964868683s702ms.jpg,964868683s702ms.jpg,489,31287,32677,33842,0.043945312,-0.5126953,0.7373046999999999,0.4309562939248,-5.027823363744999,7.230489136255,430505968.0,-1036456088,-84.60000000000002,1.929,20.29,32712,32707,32518,3.902439,13.04878,2.987805,32727,32444,31338,0.66,1.8,-0.22,3.0,1.0,2.0,3.0
964868683,702,2020-07-28/964868683s702ms.jpg,964868683s702ms.jpg,186,31949,32960,33341,-0.09423828,-0.2680664,0.4140625,-0.924161828562,-2.6288333615599995,4.060566015625,430505255.0,-1036456412,-84.0,2.09,31.11,32603,32793,32614,-1.3414634,7.1951220000000005,9.634147,32731,32515,31316,1.07,1.78,-0.21,3.0,1.0,2.0,3.0
964868683,702,2020-07-28/964868683s702ms.jpg,964868683s702ms.jpg,176,31086,32985,33477,-0.10644531,-0.33447266,0.8354492,-1.0438718993115002,-3.2800563111889995,8.192957897180001,430505232.0,-1036456429,-84.0,2.09,30.79,32557,32808,32597,-2.2560976000000004,8.231708,12.439024,32726,32491,31319,1.06,1.79,-0.21,3.0,1.0,2.0,3.0
964868683,702,2020-07-28/964868683s702ms.jpg,964868683s702ms.jpg,156,30937,33205,33560,-0.21386719,-0.375,0.9082031,-2.0973206788135,-3.67749375,8.906429930615,430505180.0,-1036456452,-83.80000000000003,2.103,31.65,32385,32937,32590,-10.121951,8.658536999999999,22.926828,32724,32491,31322,1.1,1.78,-0.21,3.0,1.0,2.0,3.0
964868683,702,2020-07-28/964868683s702ms.jpg,964868683s702ms.jpg,96,32364,32923,33735,-0.076171875,-0.46044922,0.21142578,-0.74699091796875,-4.515464343313,2.073378625437,430504922.0,-1036456625,-83.80000000000003,2.02,30.46,31792,33036,32322,-16.158537,25.0,59.085365,32727,32530,31315,1.02,1.74,-0.2,3.0,1.0,2.0,3.0
964868683,702,2020-07-28/964868683s702ms.jpg,964868683s702ms.jpg,64,32438,33035,32762,-0.13085938,0.0146484375,0.17529297,-1.283292138877,0.143652099609375,1.7190368042504998,430504746.0,-1036456755,-83.80000000000003,1.905,27.42,31610,33060,32198,-17.621952,32.560974,70.18293,32716,32502,31321,0.87,1.69,-0.2,3.0,1.0,2.0,3.0
964868683,702,2020-07-28/964868683s702ms.jpg,964868683s702ms.jpg,54,31625,33085,32834,-0.15527344,-0.020507812,0.5722656,-1.522712280376,-0.2011129345497999,5.612008446240001,430504693.0,-1036456791,-83.80000000000003,1.905,27.04,31605,33051,32181,-17.073172,33.597559999999994,70.48781,32715,32509,31322,0.86,1.69,-0.2,3.0,1.0,2.0,3.0
964868683,702,2020-07-28/964868683s702ms.jpg,964868683s702ms.jpg,459,29642,33245,32590,-0.23339844,0.09863281,1.5405273000000002,-2.288856811626,0.9672574461865,15.107412046545,430505892.0,-1036456107,-84.60000000000002,1.95,22.05,32577,32691,32622,4.878049,6.707317,11.219512,32724,32435,31338,0.73,1.8,-0.22,3.0,1.0,2.0,3.0
964868683,702,2020-07-28/964868683s702ms.jpg,964868683s702ms.jpg,449,30047,33366,33354,-0.29248047,-0.27441406,1.3427733999999998,-2.8682536011255,-2.6910826414990003,13.168108763109998,430505865.0,-1036456117,-84.60000000000002,1.956,22.37,32490,32617,32610,9.390244,7.439024400000001,16.524391,32725,32441,31337,0.74,1.8,-0.22,3.0,1.0,2.0,3.0
964868683,702,2020-07-28/964868683s702ms.jpg,964868683s702ms.jpg,419,31278,33198,33787,-0.21044922,-0.48583984,0.7416991999999999,-2.063801843313,-4.764461266936,7.273584459679999,430505788.0,-1036456139,-84.60000000000002,1.947,25.0,32076,32545,32540,13.780488,11.707317,41.76829,32733,32473,31327,0.82,1.76,-0.22,3.0,1.0,2.0,3.0
964868683,702,2020-07-28/964868683s702ms.jpg,964868683s702ms.jpg,287,28994,33549,33054,-0.38183594,-0.12792969,1.8569336,-3.744531421001,-1.2545616944385,18.21029788844,430505464.0,-1036456266,-84.19999999999997,2.01,32.44,32373,32941,32255,-10.365853,29.085365000000003,23.658537,32730,32475,31321,1.07,1.69,-0.22,3.0,1.0,2.0,3.0
964868680,699,2020-07-28/964868680s699ms.jpg,964868680s699ms.jpg,614,30329,32726,32626,0.020019531,0.08105469,1.2050781000000002,0.19632453368115,0.7948749756885,11.817779149364998,430498274.0,-1036459203,-81.19999999999997,1.404,56.27,31640,32572,32937,12.134147,-12.5,68.35365999999999,32734,32363,31325,1.16,0.77,-0.12,3.0,1.0,2.0,3.0
964868680,699,2020-07-28/964868680s699ms.jpg,964868680s699ms.jpg,583,29641,32389,31581,0.18457031,0.5913086,1.5410156000000002,1.8100164305615,5.798756482189999,15.11220063374,430498207.0,-1036459223,-81.19999999999997,1.371,56.27,31805,32500,32957,16.524391,-13.719512,58.292683,32740,32389,31320,1.13,0.76,-0.12,3.0,1.0,2.0,3.0
964868680,699,2020-07-28/964868680s699ms.jpg,964868680s699ms.jpg,573,30440,32712,31707,0.026855469,0.52978516,1.1508789,0.26336218506885,5.195417639314,11.286266564685,430498187.0,-1036459239,-81.19999999999997,1.367,56.27,31832,32414,32890,21.768293,-9.634147,56.646343,32735,32365,31324,1.13,0.75,-0.12,3.0,1.0,2.0,3.0
964868680,699,2020-07-28/964868680s699ms.jpg,964868680s699ms.jpg,562,31308,32766,32775,0.00048828125,0.008300781,0.7270508000000001,0.0047884033203125,0.0814028539936499,7.129932727819999,430498168.0,-1036459255,-81.19999999999997,1.372,56.27,31812,32385,32833,23.536585,-6.1585364,57.865852,32733,32357,31325,1.14,0.76,-0.12,3.0,1.0,2.0,3.0
964868680,699,2020-07-28/964868680s699ms.jpg,964868680s699ms.jpg,996,30917,33333,33097,-0.2763672,-0.14892578,0.91796875,-2.71023640188,-1.460463000437,9.0021982421875,430498929.0,-1036459169,-81.0,1.359,56.27,34050,32774,33812,-0.18292683,-65.85365999999999,-78.597565,32727,32411,31338,1.13,0.75,-0.14,3.0,1.0,2.0,3.0
964868680,699,2020-07-28/964868680s699ms.jpg,964868680s699ms.jpg,986,30708,33197,33351,-0.20996094,-0.27294922,1.0200195,-2.059013452251,-2.676717468313,10.002974229675,430498915.0,-1036459180,-81.0,1.351,56.27,34021,32754,33855,1.0365853,-68.47561,-76.82927,32727,32410,31338,1.12,0.75,-0.14,3.0,1.0,2.0,3.0
964868680,699,2020-07-28/964868680s699ms.jpg,964868680s699ms.jpg,845,30759,32632,33237,0.06591797,-0.21728516,0.9951171999999998,0.6464344605005,-2.130839514314,9.758766089380002,430498719.0,-1036459212,-81.19999999999997,1.404,56.27,31876,32319,33430,27.560976,-42.560974,53.963413,32738,32367,31317,1.16,0.77,-0.13,3.0,1.0,2.0,3.0
964868680,699,2020-07-28/964868680s699ms.jpg,964868680s699ms.jpg,805,29881,32054,32806,0.34814453,-0.0068359375,1.4238281000000002,3.4141315551245,-0.0670376464843749,13.962983836864998,430498646.0,-1036459184,-81.19999999999997,1.409,56.27,31874,32351,33485,25.609756,-45.914635,54.085365,32737,32357,31318,1.17,0.78,-0.13,3.0,1.0,2.0,3.0
964868680,699,2020-07-28/964868680s699ms.jpg,964868680s699ms.jpg,785,30645,32165,32720,0.2939453,0.03515625,1.0507812,2.882618676245,0.3447650390625,10.30464345498,430498598.0,-1036459176,-81.39999999999998,1.39,56.27,31904,32372,33392,24.329268,-40.243904,52.256096,32741,32364,31314,1.15,0.77,-0.13,3.0,1.0,2.0,3.0
964868680,699,2020-07-28/964868680s699ms.jpg,964868680s699ms.jpg,885,32283,31188,34473,0.7709961,-0.8208008,0.25097656,7.560888904064998,-8.049306165319999,2.461239282124,430498781.0,-1036459216,-81.0,1.38,56.27,32593,32261,33905,31.09756,-71.52439,10.243902,32736,32383,31323,1.14,0.76,-0.14,3.0,1.0,2.0,3.0
964868680,699,2020-07-28/964868680s699ms.jpg,964868680s699ms.jpg,208,31763,32222,32123,0.26611328,0.32666016,0.5048828,2.6096797973120003,3.203441858064,4.951208910619999,430497673.0,-1036459801,-80.80000000000003,1.225,56.27,32308,32647,32762,7.560975599999999,-1.8292683,27.621952,32748,32395,31309,1.01,0.68,-0.11,3.0,1.0,2.0,3.0
964868680,699,2020-07-28/964868680s699ms.jpg,964868680s699ms.jpg,87,29933,32779,31300,-0.005859375,0.7285156,1.3984375,-0.05746083984375,7.144297508739999,13.713987109375,430497593.0,-1036460044,-80.60000000000002,1.139,56.27,32161,32235,32882,32.682926,-9.146341,36.585365,32747,32386,31310,0.94,0.63,-0.12,3.0,1.0,2.0,3.0
964868680,699,2020-07-28/964868680s699ms.jpg,964868680s699ms.jpg,47,28853,32176,31814,0.28857422,0.47753906,1.9257812,2.829946374563,4.683058422749,18.88546220498,430497531.0,-1036460158,-80.60000000000002,1.022,56.27,32134,32365,32937,24.756098,-12.5,38.23171,32755,32412,31298,0.84,0.56,-0.12,3.0,1.0,2.0,3.0
964868680,699,2020-07-28/964868680s699ms.jpg,964868680s699ms.jpg,258,31671,32926,32939,-0.07763672,-0.071777344,0.5498046999999999,-0.761356140188,-0.7038952905375999,5.391742261255,430497692.0,-1036459703,-80.80000000000003,1.259,56.27,32676,32555,32983,13.170732,-15.304878,5.1829267,32757,32413,31304,1.04,0.69,-0.11,3.0,1.0,2.0,3.0
964868680,699,2020-07-28/964868680s699ms.jpg,964868680s699ms.jpg,379,29035,32661,31995,0.051757812,0.38916016,1.8369141,0.5075707470498,3.816357483064,18.013973658765,430497800.0,-1036459532,-81.0,1.272,56.27,32051,32910,32709,-8.475610000000001,1.402439,43.292683,32746,32384,31311,1.05,0.7,-0.11,3.0,1.0,2.0,3.0
964868680,699,2020-07-28/964868680s699ms.jpg,964868680s699ms.jpg,421,31382,32335,34452,0.2109375,-0.8105469,0.69091797,2.068590234375,-7.948749756884999,6.7755907105005,430497858.0,-1036459472,-81.0,1.335,56.27,31995,32190,32424,35.426829999999995,18.780487,46.707317,32748,32401,31310,1.11,0.74,-0.11,3.0,1.0,2.0,3.0
964868680,699,2020-07-28/964868680s699ms.jpg,964868680s699ms.jpg,339,31177,32908,33000,-0.068847656,-0.1015625,0.7910156,-0.6751648657123999,-0.995987890625,7.75721313374,430497750.0,-1036459585,-80.80000000000003,1.258,56.27,32256,32826,32694,-3.3536584,2.317073,30.792683,32759,32430,31299,1.04,0.69,-0.11,3.0,1.0,2.0,3.0
964868680,699,2020-07-28/964868680s699ms.jpg,964868680s699ms.jpg,269,32255,32640,32988,0.06201172,-0.095703125,0.26464844,0.608127233938,-0.93852705078125,2.595314624126,430497697.0,-1036459688,-80.80000000000003,1.262,56.27,32619,32464,32894,18.719513,-9.878049,8.658536999999999,32752,32396,31307,1.04,0.7,-0.11,3.0,1.0,2.0,3.0
964868680,699,2020-07-28/964868680s699ms.jpg,964868680s699ms.jpg,329,31484,32841,33737,-0.036132812,-0.46142578,0.6411133000000001,-0.3543418407998,-4.525041125437,6.287173743444999,430497742.0,-1036459599,-80.80000000000003,1.259,56.27,32357,32845,32837,-4.512194999999999,-6.402439,24.634146,32753,32409,31305,1.04,0.69,-0.11,3.0,1.0,2.0,3.0
964868680,699,2020-07-28/964868680s699ms.jpg,964868680s699ms.jpg,279,32056,32468,33598,0.1459961,-0.3935547,0.3618164,1.4317326540649995,-3.859453198755,3.5482067990599995,430497701.0,-1036459674,-80.80000000000003,1.263,56.27,32499,32536,32836,14.329268,-6.3414636,15.97561,32747,32389,31312,1.05,0.7,-0.11,3.0,1.0,2.0,3.0
964868698,717,2020-07-28/964868698s717ms.jpg,964868698s717ms.jpg,401,30600,33036,32308,-0.13134766,0.23632812,1.0727539,-1.288080529939,2.317587157998,10.520122033435,430499782.0,-1036424579,-8.800000000000011,0.0,101.91,32454,32923,32249,-9.268292,29.451220000000003,18.719513,32726,32539,31277,0.0,0.0,0.0,3.0,1.0,2.0,3.0
964868698,717,2020-07-28/964868698s717ms.jpg,964868698s717ms.jpg,391,29860,33019,31421,-0.123046875,0.6694336,1.434082,-1.20667763671875,6.564901013439998,14.0635402453,430499782.0,-1036424579,-8.800000000000011,0.0,101.91,32544,33088,32222,-19.329268,31.09756,13.231708,32729,32557,31272,0.0,0.0,0.0,3.0,1.0,2.0,3.0
964868698,717,2020-07-28/964868698s717ms.jpg,964868698s717ms.jpg,349,30654,32261,31670,0.24707031,0.54785156,1.0463867,2.4229320555615,5.372588500874,10.261548131555,430499782.0,-1036424581,-8.800000000000011,0.0,101.91,32682,33379,32321,-37.073170000000005,25.060976,4.8170733,32731,32572,31269,0.0,0.0,0.0,3.0,1.0,2.0,3.0
964868698,717,2020-07-28/964868698s717ms.jpg,964868698s717ms.jpg,339,31936,32341,30443,0.20800781,1.1469726999999998,0.42041016,2.0398597899365,11.247959828455,4.122815295563999,430499782.0,-1036424582,-8.800000000000011,0.0,101.91,32862,33563,32255,-48.292683,29.085365000000003,-6.1585364,32724,32559,31277,0.0,0.0,0.0,3.0,1.0,2.0,3.0
964868698,717,2020-07-28/964868698s717ms.jpg,964868698s717ms.jpg,561,27352,33893,38036,-0.5498046999999999,-2.5605469,2.6586914,-5.391742261255,-25.110387256885,26.07285601781,430499788.0,-1036424574,-8.800000000000011,0.0,101.91,32170,33231,32148,-28.04878,35.609756,36.036587,32740,32513,31283,0.0,0.0,0.0,3.0,1.0,2.0,3.0
964868698,717,2020-07-28/964868698s717ms.jpg,964868698s717ms.jpg,531,34584,33783,29396,-0.49609375,1.6582031000000004,-0.8725586,-4.8650177734375,16.261417430614998,-8.55687679469,430499785.0,-1036424576,-8.800000000000011,0.0,101.91,32361,32096,32377,41.158535,21.646341,24.390244,32739,32529,31281,0.0,0.0,0.0,3.0,1.0,2.0,3.0
964868698,717,2020-07-28/964868698s717ms.jpg,964868698s717ms.jpg,571,31922,33732,35153,-0.4711914000000001,-1.152832,0.4272460999999999,-4.62080914281,-11.3054199328,4.189852966565,430499788.0,-1036424573,-8.800000000000011,0.0,101.91,32174,32924,32051,-9.329268,41.52439,35.792683000000004,32741,32514,31284,0.0,0.0,0.0,3.0,1.0,2.0,3.0
964868698,717,2020-07-28/964868698s717ms.jpg,964868698s717ms.jpg,24,32253,32644,34313,0.060058594,-0.7426758000000001,0.265625,0.5889736108500999,-7.28316163407,2.60489140625,430499790.0,-1036424605,-8.800000000000011,0.0,101.91,32851,32734,32881,2.2560976000000004,-9.085366,-5.487805000000001,32718,32559,31288,0.0,0.0,0.0,3.0,1.0,2.0,3.0
964868698,717,2020-07-28/964868698s717ms.jpg,964868698s717ms.jpg,75,30685,32373,34330,0.19238281,-0.75097656,1.03125,1.8866308836865,-7.364564282123999,10.1131078125,430499788.0,-1036424597,-8.800000000000011,0.0,101.91,32809,32784,32785,-0.79268295,-3.2317073,-2.9268293,32713,32550,31294,0.0,0.0,0.0,3.0,1.0,2.0,3.0
964868698,717,2020-07-28/964868698s717ms.jpg,964868698s717ms.jpg,85,32498,32566,35553,0.09814453,-1.3481445,0.1459961,0.9624690551245,-13.220781260925,1.4317326540649995,430499788.0,-1036424596,-8.800000000000011,0.0,101.91,32750,32664,32648,6.52439,5.121951,0.6707316999999999,32713,32551,31295,0.0,0.0,0.0,3.0,1.0,2.0,3.0
964868698,717,2020-07-28/964868698s717ms.jpg,964868698s717ms.jpg,105,32006,33509,32056,-0.3623047,0.359375,0.38623047,-3.552995386255,3.52426484375,3.7876270386255,430499788.0,-1036424595,-8.800000000000011,0.0,101.91,32860,32555,32555,13.170732,10.792683,-6.0365853,32718,32571,31288,0.0,0.0,0.0,3.0,1.0,2.0,3.0
964868698,717,2020-07-28/964868698s717ms.jpg,964868698s717ms.jpg,289,40276,31959,33954,0.39453125,-0.5673828000000001,-3.6518555,3.8690298828125,-5.56412453562,-35.812468739074994,430499784.0,-1036424584,-8.800000000000011,0.0,101.91,33331,32129,32481,39.146343,15.304878,-34.756096,32715,32546,31287,0.0,0.0,0.0,3.0,1.0,2.0,3.0
964868698,717,2020-07-28/964868698s717ms.jpg,964868698s717ms.jpg,185,31257,32492,34139,0.13427734,-0.65771484,0.7519531,1.3168108763109998,-6.449979235686,7.374140868114999,430499788.0,-1036424591,-8.800000000000011,0.0,101.91,33068,32696,32615,4.5731707,7.134146,-18.719513,32720,32571,31285,0.0,0.0,0.0,3.0,1.0,2.0,3.0
964868628,714,2020-07-28/964868628s714ms.jpg,964868628s714ms.jpg,679,30526,32673,33369,0.045898438,-0.28173828,1.1088867,0.4501099170127,-2.762908703562,10.874463756555,430423730.0,-1036544048,-66.0,1.529,31.31,32997,32491,32416,17.073172,19.268293,-14.390244,32677,32531,31348,0.79,1.3,-0.31,1.0,0.0,0.0,0.0
964868628,714,2020-07-28/964868628s714ms.jpg,964868628s714ms.jpg,619,31589,32811,33082,-0.021484375,-0.14160156,0.58984375,-0.21068974609375,-1.3886369383739998,5.7843912109375,430423635.0,-1036544102,-65.80000000000001,1.588,30.72,33165,32606,32372,10.060976,21.951220000000003,-24.634146,32678,32538,31345,0.81,1.36,-0.31,1.0,0.0,0.0,0.0
964868628,714,2020-07-28/964868628s714ms.jpg,964868628s714ms.jpg,559,31743,33231,33386,-0.2265625,-0.29003906,0.51464844,-2.221819140625,-2.844311547749,5.046977124125999,430423412.0,-1036544253,-65.60000000000002,1.564,31.99,33271,32611,32468,9.756098,16.09756,-31.09756,32682,32552,31343,0.82,1.32,-0.31,1.0,0.0,0.0,0.0
964868628,714,2020-07-28/964868628s714ms.jpg,964868628s714ms.jpg,968,31967,32616,34084,0.07373047,-0.6308594,0.40527344,0.7230489136255001,-6.186617335009999,3.974374780376,430424198.0,-1036543567,-67.0,1.2919999999999998,52.34,32730,32706,32780,3.9634147,-2.9268293,1.8902439,32676,32515,31360,1.02,0.78,-0.3,1.0,0.0,0.0,0.0
964868628,714,2020-07-28/964868628s714ms.jpg,964868628s714ms.jpg,887,31629,32916,31973,-0.072753906,0.39990234,0.5703125,-0.7134720922748999,3.921702282561,5.592855078125,430424123.0,-1036543708,-66.80000000000001,1.229,41.04,32358,32671,32582,6.097561,9.146341,24.573172,32680,32533,31355,0.8,0.92,-0.3,1.0,0.0,0.0,0.0
964868628,714,2020-07-28/964868628s714ms.jpg,964868628s714ms.jpg,877,31794,33125,32463,-0.17480469,0.16064453,0.4897460999999999,-1.7142484131885,1.5753846801245002,4.802768591565,430424118.0,-1036543716,-66.80000000000001,1.3119999999999998,40.53,32377,32640,32588,7.987805000000001,8.780488,23.414635,32683,32544,31353,0.85,0.99,-0.3,1.0,0.0,0.0,0.0
964868628,714,2020-07-28/964868628s714ms.jpg,964868628s714ms.jpg,847,30176,33137,32842,-0.18066406,-0.024414062,1.2797851999999998,-1.7717092039989997,-0.2394201611122999,12.55040553158,430424093.0,-1036543753,-66.60000000000002,1.352,38.39,32495,32622,32607,9.085366,7.621950999999999,16.219513,32674,32517,31357,0.83,1.05,-0.3,1.0,0.0,0.0,0.0
964868628,714,2020-07-28/964868628s714ms.jpg,964868628s714ms.jpg,807,30552,32755,33080,0.005859375,-0.140625,1.0961914,0.05746083984375,-1.37906015625,10.74996539281,430423965.0,-1036543865,-66.39999999999998,1.342,35.62,32702,32474,32569,18.109756,9.939024,3.597561,32684,32556,31344,0.78,1.09,-0.3,1.0,0.0,0.0,0.0
964868628,714,2020-07-28/964868628s714ms.jpg,964868628s714ms.jpg,796,31017,32935,33266,-0.08203125,-0.23144531,0.8691405999999999,-0.8044517578125,-2.2697031493115,8.52335766499,430423922.0,-1036543899,-66.39999999999998,1.3430000000000002,35.41,32680,32451,32539,19.512196,11.768292,4.939024400000001,32682,32554,31347,0.77,1.09,-0.3,1.0,0.0,0.0,0.0
964868628,714,2020-07-28/964868628s714ms.jpg,964868628s714ms.jpg,776,30845,33151,33552,-0.1875,-0.37109375,0.953125,-1.838746875,-3.6391865234375,9.34696328125,430423844.0,-1036543958,-66.39999999999998,1.36,35.18,32612,32509,32454,15.97561,16.951220000000003,9.085366,32678,32535,31352,0.78,1.11,-0.3,1.0,0.0,0.0,0.0
964868628,714,2020-07-28/964868628s714ms.jpg,964868628s714ms.jpg,167,30784,33478,32796,-0.34716797,-0.001953125,0.98291016,-3.4045547730005,-0.01915361328125,9.639055920564,430422199.0,-1036544989,-64.39999999999998,1.369,42.83,33473,32584,33009,11.402439,-16.890244,-43.414635,32693,32538,31351,0.93,1.0,-0.31,1.0,0.0,0.0,0.0
964868628,714,2020-07-28/964868628s714ms.jpg,964868628s714ms.jpg,125,30790,32830,33626,-0.030761719,-0.40722656,0.97998047,-0.30166941163135,-3.993528344624,9.6103254761255,430422061.0,-1036545083,-64.19999999999999,1.352,44.74,33388,32548,33096,13.597561,-22.195122,-38.23171,32690,32507,31356,0.95,0.96,-0.32,1.0,0.0,0.0,0.0
964868628,714,2020-07-28/964868628s714ms.jpg,964868628s714ms.jpg,65,30964,32640,33864,0.06201172,-0.5234375,0.89501953,0.608127233938,-5.133168359375,8.777143273874499,430421965.0,-1036545132,-64.0,1.4469999999999998,45.41,33342,32541,33059,14.02439,-19.939024,-35.426829999999995,32692,32483,31361,1.03,1.01,-0.33,1.0,0.0,0.0,0.0
964868628,714,2020-07-28/964868628s714ms.jpg,964868628s714ms.jpg,35,30682,32448,33036,0.15576172,-0.119140625,1.0327148000000002,1.527500671438,-1.16837041015625,10.12747259342,430421933.0,-1036545168,-64.0,1.465,42.61,33340,32558,33050,12.987804,-19.390244,-35.30488,32704,32520,31347,0.99,1.07,-0.33,1.0,0.0,0.0,0.0
964868628,714,2020-07-28/964868628s714ms.jpg,964868628s714ms.jpg,25,31229,32455,33174,0.15234375,-0.18652344,0.765625,1.4939818359375,-1.829170092876,7.50821640625,430421919.0,-1036545183,-63.80000000000001,1.462,42.0,33329,32560,33022,12.865853,-17.682926000000002,-34.634148,32701,32499,31354,0.97,1.08,-0.33,1.0,0.0,0.0,0.0
964868628,714,2020-07-28/964868628s714ms.jpg,964868628s714ms.jpg,15,31444,32503,32985,0.12890625,-0.09423828,0.66064453,1.2641384765625,-0.924161828562,6.4787096801245,430421903.0,-1036545201,-63.80000000000001,1.457,41.23,33305,32589,33004,11.097561,-16.585365,-33.17073,32697,32475,31357,0.96,1.09,-0.33,1.0,0.0,0.0,0.0
964868628,714,2020-07-28/964868628s714ms.jpg,964868628s714ms.jpg,228,31170,33314,33368,-0.26708984,-0.28125,0.7944336,-2.619256579436,-2.7581203125,7.790732263439999,430422383.0,-1036544861,-64.60000000000002,1.408,38.5,33422,32508,32876,16.036585000000002,-8.780488,-40.30488,32682,32517,31353,0.87,1.1,-0.31,1.0,0.0,0.0,0.0
964868628,714,2020-07-28/964868628s714ms.jpg,964868628s714ms.jpg,135,31247,32921,33383,-0.07519531,-0.28857422,0.75683594,-0.7374140868115,-2.829946374563,7.422025171001001,430422096.0,-1036545058,-64.19999999999999,1.351,44.45,33369,32543,33021,13.902439,-17.621952,-37.073170000000005,32686,32498,31359,0.94,0.96,-0.32,1.0,0.0,0.0,0.0
964868628,714,2020-07-28/964868628s714ms.jpg,964868628s714ms.jpg,396,30026,33250,32638,-0.23583984,0.07519531,1.3530273000000002,-2.312798766936,0.7374140868115,13.268665171545,430422740.0,-1036544664,-65.19999999999999,1.461,33.6,33065,32756,32586,0.91463417,8.902439,-18.536585,32681,32534,31350,0.8,1.21,-0.31,1.0,0.0,0.0,0.0
964868665,718,2020-07-28/964868665s718ms.jpg,964868665s718ms.jpg,747,31214,33389,33848,-0.30371094,-0.515625,0.7729491999999999,-2.9783868897509995,-5.05655390625,7.580042272179999,430491063.0,-1036484672,-145.2,5.581,38.84,33241,32633,32534,8.414634,12.073171,-29.268293,32692,32601,31224,3.5,4.34,-0.31,2.0,1.0,1.0,2.0
964868665,718,2020-07-28/964868665s718ms.jpg,964868665s718ms.jpg,707,29815,33324,32367,-0.27197266,0.20751953,1.4560547,-2.667140686189,2.0350713988745,14.279018823755,430491135.0,-1036484773,-145.0,5.756,40.23,33038,32827,32640,-3.4146342000000005,5.609756,-16.890244,32698,32637,31221,3.71,4.39,-0.32,2.0,1.0,1.0,2.0
964868665,718,2020-07-28/964868665s718ms.jpg,964868665s718ms.jpg,585,31418,33299,33131,-0.25976562,-0.16552734,0.67333984,-2.5474305173729994,-1.623268688811,6.603208141936,430490887.0,-1036485354,-144.60000000000005,5.931,38.14,33196,32679,32628,5.609756,6.3414636,-26.524391,32692,32629,31229,3.66,4.66,-0.32,2.0,1.0,1.0,2.0
964868665,718,2020-07-28/964868665s718ms.jpg,964868665s718ms.jpg,605,30411,33123,32608,-0.17382812,0.08984375,1.1650391000000002,-1.704671532998,0.8810662109374999,11.425130690015,430490949.0,-1036485240,-144.60000000000005,5.919,38.34,33226,32614,32676,9.573171,3.4146342000000005,-28.353659000000004,32687,32614,31233,3.67,4.64,-0.32,2.0,1.0,1.0,2.0
964868665,718,2020-07-28/964868665s718ms.jpg,964868665s718ms.jpg,543,31056,33378,33211,-0.29833984,-0.20458984,0.85009766,-2.925714391936,-2.006340954436,8.336610217438999,430490759.0,-1036485574,-144.60000000000005,5.996,36.9,33278,32781,32758,-0.6097561,-1.5853659,-31.524391,32686,32615,31235,3.59,4.79,-0.34,2.0,1.0,1.0,2.0
964868665,718,2020-07-28/964868665s718ms.jpg,964868665s718ms.jpg,533,33012,33461,32415,-0.3388672,0.18408203,-0.10498047,-3.3231520268799994,1.8052280394995,-1.0295067261255,430490716.0,-1036485638,-144.60000000000005,6.013999999999999,36.58,33269,32652,32663,7.256098,4.207317,-30.975609,32687,32621,31236,3.58,4.82,-0.34,2.0,1.0,1.0,2.0
964868665,718,2020-07-28/964868665s718ms.jpg,964868665s718ms.jpg,523,33117,33600,31375,-0.40673828,0.69189453,-0.15625,-3.988739953562,6.7851674926245,-1.5322890625,430490689.0,-1036485693,-144.60000000000005,6.039,36.21,33256,32599,32525,10.487804,12.621951,-30.182926,32686,32614,31237,3.56,4.87,-0.34,2.0,1.0,1.0,2.0
964868665,718,2020-07-28/964868665s718ms.jpg,964868665s718ms.jpg,947,30418,33129,33091,-0.17675781,-0.1459961,1.1616211,-1.7334019774364997,-1.4317326540649995,11.391611560315,430491413.0,-1036484066,-146.0,5.132000000000001,18.73,32829,32630,32528,8.597561,12.439024,-4.1463413000000005,32698,32600,31226,1.64,4.86,-0.3,2.0,1.0,1.0,2.0
964868665,718,2020-07-28/964868665s718ms.jpg,964868665s718ms.jpg,907,31249,33023,33371,-0.125,-0.28271484,0.7558594,-1.22583125,-2.772485485686,7.412448585009999,430491235.0,-1036484226,-146.0,5.2,20.8,32871,32521,32541,15.243902,11.646341,-6.707317,32695,32603,31226,1.84,4.86,-0.3,2.0,1.0,1.0,2.0
964868665,718,2020-07-28/964868665s718ms.jpg,964868665s718ms.jpg,767,31929,32447,34485,0.15625,-0.82666016,0.42382812,1.5322890625,-8.106766858063999,4.156334032997998,430490962.0,-1036484660,-145.39999999999995,5.446000000000001,37.7,33284,32448,32589,19.695122,8.719512,-31.890244,32699,32624,31218,3.33,4.3,-0.31,2.0,1.0,1.0,2.0
964868665,718,2020-07-28/964868665s718ms.jpg,964868665s718ms.jpg,807,30439,33133,32005,-0.17871094,0.38427734,1.1513672,-1.752555639751,3.768473376311,11.291055151879997,430490955.0,-1036484545,-145.60000000000005,5.322,34.58,32988,32740,32588,1.8902439,8.780488,-13.841463,32695,32610,31223,3.02,4.38,-0.32,2.0,1.0,1.0,2.0
964868665,718,2020-07-28/964868665s718ms.jpg,964868665s718ms.jpg,493,26976,33604,32996,-0.4086914,-0.099609375,2.8422852,-4.00789351781,-0.97683427734375,27.87329615658,430490659.0,-1036485824,-144.39999999999995,6.117999999999999,34.47,33447,32696,33040,4.5731707,-18.780487,-41.82927,32688,32623,31238,3.46,5.04,-0.33,2.0,1.0,1.0,2.0
964868665,718,2020-07-28/964868665s718ms.jpg,964868665s718ms.jpg,211,27714,33277,29723,-0.24902344,1.4985351999999998,2.4819336,-2.442085717876,14.69561021908,24.33945413844,430489130.0,-1036487458,-143.8,5.744,7.09,32824,32885,33128,-6.9512196,-24.146341,-3.8414633,32711,32572,31269,0.7,5.7,-0.3,2.0,1.0,1.0,2.0
964868665,718,2020-07-28/964868665s718ms.jpg,964868665s718ms.jpg,141,28206,32315,31803,0.22070312,0.48291016,2.2416992,2.164358251748,4.735730920564,21.983559459679995,430488704.0,-1036487731,-143.8,5.7620000000000005,5.8,32255,32734,32769,2.2560976000000004,-2.2560976000000004,30.853659000000004,32727,32595,31261,0.58,5.73,-0.31,2.0,1.0,1.0,2.0
964868665,718,2020-07-28/964868665s718ms.jpg,964868665s718ms.jpg,71,30234,32991,32944,-0.109375,-0.07421875,1.2514648000000002,-1.07260234375,-0.7278373046875,12.272677280919998,430488256.0,-1036487956,-143.8,5.522,10.56,31773,33059,32453,-17.560976,17.012196,60.243904,32727,32608,31253,1.01,5.42,-0.31,2.0,1.0,1.0,2.0
964868665,718,2020-07-28/964868665s718ms.jpg,964868665s718ms.jpg,61,30191,32979,32607,-0.103515625,0.09033203,1.2724608999999998,-1.01514150390625,0.8858546019994998,12.478578684985,430488201.0,-1036487991,-143.8,5.5120000000000005,10.6,31734,33012,32397,-14.695122,20.426828,62.621952,32721,32586,31258,1.01,5.41,-0.31,2.0,1.0,1.0,2.0
964868665,718,2020-07-28/964868665s718ms.jpg,964868665s718ms.jpg,41,31711,32907,32631,-0.068359375,0.07861328,0.53027344,-0.6703764648437499,0.770932922312,5.200206030375999,430488116.0,-1036488065,-143.60000000000005,5.487,11.01,31735,32769,32277,0.12195122,27.743902,62.560974,32713,32569,31261,1.04,5.38,-0.31,2.0,1.0,1.0,2.0
964868665,718,2020-07-28/964868665s718ms.jpg,964868665s718ms.jpg,412,29556,32977,32883,-0.10253906,-0.044433594,1.5825195,-1.005564672749,-0.4357447046001,15.519214854675,430490136.0,-1036486489,-144.2,5.553999999999999,24.55,33796,32656,33132,7.012194999999999,-24.390244,-63.109756,32698,32638,31239,2.3,5.05,-0.33,2.0,1.0,1.0,2.0
964868665,718,2020-07-28/964868665s718ms.jpg,964868665s718ms.jpg,332,31711,32596,33008,0.083496094,-0.10546875,0.53027344,0.8188169702250999,-1.0342951171875,5.200206030375999,430489795.0,-1036486834,-144.0,5.496,17.84,33535,32638,33081,8.109755999999999,-21.280487,-47.19512,32713,32638,31247,1.68,5.23,-0.32,2.0,1.0,1.0,2.0
964868665,718,2020-07-28/964868665s718ms.jpg,964868665s718ms.jpg,362,30194,32652,33377,0.056152344,-0.28564453,1.2709961,0.5506663842876,-2.8012159301245,12.464213904065002,430489927.0,-1036486688,-144.0,5.534,21.41,33640,32635,33276,8.292683,-33.17073,-53.59756,32698,32604,31253,2.02,5.15,-0.32,2.0,1.0,1.0,2.0
964868578,697,2020-07-28/964868578s697ms.jpg,964868578s697ms.jpg,639,30306,32661,32664,0.051757812,0.0625,1.2163086,0.5075707470498,0.612915625,11.927912732189998,430432928.0,-1036560858,23.600000000000023,2.78,277.31,32815,32677,32845,5.731707,-6.890244,-3.292683,32750,32535,31197,-2.75,0.35,-0.08,1.0,0.0,0.0,0.0
964868578,697,2020-07-28/964868578s697ms.jpg,964868578s697ms.jpg,528,30333,33190,33039,-0.20654297,-0.12060547,1.203125,-2.0254946167505,-1.1827356323755,11.79862578125,430433140.0,-1036560301,23.79999999999995,2.881,280.17,32300,32854,32747,-5.060975599999999,-0.91463417,28.109756,32747,32521,31197,-2.83,0.5,-0.07,1.0,0.0,0.0,0.0
964868578,697,2020-07-28/964868578s697ms.jpg,964868578s697ms.jpg,731,30053,32649,32822,0.057617188,-0.0146484375,1.3398438,0.5650315967001999,-0.143652099609375,13.139379201269998,430432699.0,-1036561369,23.399999999999977,2.752,272.31,33223,32769,32995,0.12195122,-16.036585000000002,-28.170732,32750,32550,31187,-2.74,0.11,-0.09,1.0,0.0,0.0,0.0
964868578,697,2020-07-28/964868578s697ms.jpg,964868578s697ms.jpg,741,30689,32768,34050,-0.00048828125,-0.6142578000000001,1.0292969,-0.0047884033203125,-6.023811254369999,10.093954444385,430432663.0,-1036561419,23.399999999999977,2.73,271.1,33263,32801,32873,-1.8292683,-8.597561,-30.609756,32757,32570,31183,-2.72,0.05,-0.09,1.0,0.0,0.0,0.0
964868578,697,2020-07-28/964868578s697ms.jpg,964868578s697ms.jpg,508,31244,33233,33028,-0.22753906,-0.115234375,0.7583008000000001,-2.231395922749,-1.13006318359375,7.43639054032,430433169.0,-1036560210,23.79999999999995,2.7910000000000004,279.58,32216,32791,32686,-1.2195122,2.804878,33.23171,32748,32529,31195,-2.75,0.46,-0.07,1.0,0.0,0.0,0.0
964868578,697,2020-07-28/964868578s697ms.jpg,964868578s697ms.jpg,955,30496,33078,33552,-0.15185547,-0.37109375,1.1235351999999998,-1.4891934448754998,-3.6391865234375,11.01811646908,430431682.0,-1036562490,22.79999999999995,1.926,251.9,32767,32790,32639,-1.1585366,5.6707315000000005,-0.36585367,32752,32553,31178,-1.83,-0.59,-0.11,1.0,0.0,0.0,0.0
964868578,697,2020-07-28/964868578s697ms.jpg,964868578s697ms.jpg,925,30553,32646,32797,0.05908203,-0.0024414061999999,1.0957031000000002,0.5793967894995,-0.0239420161112299,10.745176805615,430431765.0,-1036562370,22.79999999999995,1.946,251.08,33148,32744,32758,1.6463414,-1.5853659,-23.59756,32751,32549,31178,-1.84,-0.63,-0.1,1.0,0.0,0.0,0.0
964868578,697,2020-07-28/964868578s697ms.jpg,964868578s697ms.jpg,915,31261,32561,33152,0.10058594,-0.17578125,0.75,0.986411108501,-1.7238251953125,7.3549875,430431798.0,-1036562331,23.0,1.959,251.38,33288,32647,32765,7.560975599999999,-2.012195,-32.134148,32752,32556,31178,-1.85,-0.62,-0.1,1.0,0.0,0.0,0.0
964868578,697,2020-07-28/964868578s697ms.jpg,964868578s697ms.jpg,751,31053,32581,33954,0.09082031,-0.5673828000000001,0.8515625,0.8906429930615001,-5.56412453562,8.350975390624999,430432632.0,-1036561466,23.399999999999977,2.704,269.74,33311,32785,32807,-0.85365856,-4.5731707,-33.536587,32758,32575,31184,-2.7,-0.01,-0.09,1.0,0.0,0.0,0.0
964868578,697,2020-07-28/964868578s697ms.jpg,964868578s697ms.jpg,895,31932,32709,34170,0.028320312,-0.67285156,0.42236328,0.2777273876748,-6.598419750873999,4.141968859812,430431874.0,-1036562246,23.0,1.995,252.14,33389,32593,32757,10.853659,-1.5243902,-38.292683,32744,32530,31187,-1.89,-0.61,-0.1,1.0,0.0,0.0,0.0
964868578,697,2020-07-28/964868578s697ms.jpg,964868578s697ms.jpg,835,30119,32463,33018,0.1484375,-0.11035156,1.3076172,1.455674609375,-1.082179125874,12.82334421438,430432295.0,-1036561769,23.20000000000005,2.219,259.48,33415,32813,32810,-2.5609756,-4.756098000000001,-39.878048,32748,32538,31186,-2.18,-0.4,-0.09,1.0,0.0,0.0,0.0
964868578,697,2020-07-28/964868578s697ms.jpg,964868578s697ms.jpg,498,31650,33161,33362,-0.19238281,-0.2783203,0.5600586,-1.8866308836865,-2.729389769995,5.492298669689999,430433182.0,-1036560164,24.0,2.767,279.09,32201,32775,32658,-0.24390244,4.512194999999999,34.146343,32750,32536,31192,-2.73,0.43,-0.07,1.0,0.0,0.0,0.0
964868578,697,2020-07-28/964868578s697ms.jpg,964868578s697ms.jpg,188,30569,32998,33171,-0.11279297,-0.1850586,1.0878906000000002,-1.1061211792505,-1.81480491969,10.66856235249,430434114.0,-1036558803,24.600000000000023,1.554,286.39,32741,32727,32762,2.682927,-1.8292683,1.2195122,32753,32543,31177,-1.49,0.43,-0.05,1.0,0.0,0.0,0.0
964868578,697,2020-07-28/964868578s697ms.jpg,964868578s697ms.jpg,88,30344,32642,33154,0.0610351559999999,-0.17675781,1.1977539,0.5985504125873999,-1.7334019774364997,11.745953283434998,430434504.0,-1036558422,24.79999999999995,1.528,285.65,33288,32695,32889,4.634146,-9.573171,-32.134148,32756,32562,31175,-1.47,0.41,-0.04,1.0,0.0,0.0,0.0
964868578,697,2020-07-28/964868578s697ms.jpg,964868578s697ms.jpg,35,31390,32487,33711,0.13671875,-0.44873047,0.6870116999999999,1.3407529296874998,-4.4005426636255,6.737283287805001,430434748.0,-1036558255,24.79999999999995,1.454,289.98,33405,32744,32851,1.6463414,-7.256098,-39.26829,32749,32529,31183,-1.36,0.49,-0.04,1.0,0.0,0.0,0.0
964868578,697,2020-07-28/964868578s697ms.jpg,964868578s697ms.jpg,238,30690,32982,33015,-0.10498047,-0.10888672,1.0288086,-1.0295067261255,-1.067813952688,10.08916585719,430433975.0,-1036558991,24.399999999999977,1.766,287.29,32682,32752,32725,1.1585366,0.42682928,4.8170733,32757,32559,31173,-1.68,0.52,-0.06,1.0,0.0,0.0,0.0
964868578,697,2020-07-28/964868578s697ms.jpg,964868578s697ms.jpg,468,31093,33205,33429,-0.21386719,-0.31103516,0.83203125,-2.0973206788135,-3.050212951814,8.1594392578125,430433247.0,-1036560018,24.0,2.682,278.87,32234,32728,32732,2.621951,-0.0,32.134148,32748,32525,31192,-2.64,0.41,-0.07,1.0,0.0,0.0,0.0
964868578,697,2020-07-28/964868578s697ms.jpg,964868578s697ms.jpg,398,31007,32916,33611,-0.072753906,-0.39990234,0.87402344,-0.7134720922748999,-3.921702282561,8.571241967875999,430433472.0,-1036559711,24.20000000000005,2.189,283.18,32240,32780,32710,-0.5487805,1.3414634,31.768293,32746,32525,31189,-2.13,0.49,-0.07,1.0,0.0,0.0,0.0
964868578,697,2020-07-28/964868578s697ms.jpg,964868578s697ms.jpg,338,30735,33109,33599,-0.16699219,-0.39404297,1.0068359,-1.6376339600635,-3.8642414917505,9.873687278735,430433644.0,-1036559413,24.20000000000005,2.1830000000000003,285.12,32349,32842,32698,-4.3292685,2.0731707,25.121952,32749,32529,31182,-2.1,0.56,-0.06,1.0,0.0,0.0,0.0
964868578,697,2020-07-28/964868578s697ms.jpg,964868578s697ms.jpg,258,30932,32994,33254,-0.110839844,-0.22558594,0.91064453,-1.0869675561626,-2.2122423585010003,8.9303721801245,430433928.0,-1036559051,24.399999999999977,2.012,286.59,32621,32757,32681,0.85365856,3.109756,8.536586,32751,32531,31181,-1.92,0.57,-0.06,1.0,0.0,0.0,0.0
964868577,730,2020-07-28/964868577s730ms.jpg,964868577s730ms.jpg,662,30669,32999,33232,-0.11328125,-0.21484375,1.0390625,-1.1109095703125,-2.1068974609375,10.189722265625,430435720.0,-1036557062,25.600000000000023,1.032,307.65,32303,32803,32862,-1.9512196,-7.9268293,27.926828000000004,32753,32499,31195,-0.81,0.63,-0.04,1.0,0.0,0.0,0.0
964868577,730,2020-07-28/964868577s730ms.jpg,964868577s730ms.jpg,703,30772,33055,33209,-0.140625,-0.20361328,0.98876953,-1.37906015625,-1.996764172312,9.6965167113745,430435733.0,-1036557132,25.600000000000023,1.045,306.77,32381,32783,32840,-0.73170733,-6.5853660000000005,23.170732,32756,32514,31195,-0.83,0.62,-0.04,1.0,0.0,0.0,0.0
964868577,730,2020-07-28/964868577s730ms.jpg,964868577s730ms.jpg,522,30779,32852,33146,-0.041503906,-0.17285156,0.98535156,-0.4070142797749,-1.6950947508739995,9.662997875874,430435620.0,-1036556785,25.600000000000023,0.885,310.63,32165,32817,32821,-2.804878,-5.4268293,36.341465,32768,32529,31181,-0.67,0.57,-0.04,1.0,0.0,0.0,0.0
964868577,730,2020-07-28/964868577s730ms.jpg,964868577s730ms.jpg,773,31010,32505,33068,0.12792969,-0.13476562,0.8725586,1.2545616944385,-1.321599267373,8.55687679469,430435760.0,-1036557268,25.399999999999977,1.07,305.23,32663,32766,32923,0.30487806,-11.646341,5.97561,32756,32520,31198,-0.87,0.61,-0.04,1.0,0.0,0.0,0.0
964868577,730,2020-07-28/964868577s730ms.jpg,964868577s730ms.jpg,975,31945,32311,33489,0.22265625,-0.34033203,0.41601562,2.1835119140625,-3.3375171019995,4.079719579872998,430435057.0,-1036558063,25.0,1.28,294.46,33456,32630,32981,8.597561,-15.182927,-42.378048,32750,32530,31188,-1.16,0.53,-0.04,1.0,0.0,0.0,0.0
964868577,730,2020-07-28/964868577s730ms.jpg,964868577s730ms.jpg,965,31672,32460,33633,0.14990234,-0.41064453,0.5493164,1.470039782561,-4.0270471801245,5.38695367406,430435097.0,-1036558040,25.0,1.262,295.41,33405,32648,32957,7.5,-13.719512,-39.26829,32754,32541,31183,-1.14,0.54,-0.04,1.0,0.0,0.0,0.0
964868577,730,2020-07-28/964868577s730ms.jpg,964868577s730ms.jpg,893,30584,32778,33472,-0.0053710938,-0.33203125,1.0805664,-0.05267243701377,-3.2561142578125,10.59673648656,430435885.0,-1036557823,25.20000000000005,1.263,305.95,33275,32784,33048,-0.79268295,-19.268293,-31.341463,32757,32543,31190,-1.02,0.74,-0.04,1.0,0.0,0.0,0.0
964868577,730,2020-07-28/964868577s730ms.jpg,964868577s730ms.jpg,853,31147,32639,33395,0.0625,-0.2944335999999999,0.80566406,0.612915625,-2.8874072634400005,7.900865453999,430435919.0,-1036557545,25.399999999999977,1.183,306.61,33033,32789,32960,-1.097561,-13.902439,-16.585365,32751,32518,31196,-0.94,0.7,-0.04,1.0,0.0,0.0,0.0
964868577,730,2020-07-28/964868577s730ms.jpg,964868577s730ms.jpg,843,31032,32586,33416,0.088378906,-0.3046875,0.8618164,0.8667009985248999,-2.987963671875,8.45153179906,430435821.0,-1036557384,25.399999999999977,1.134,305.73,32968,32806,32960,-2.1341465,-13.902439,-12.621951,32753,32518,31196,-0.92,0.66,-0.04,1.0,0.0,0.0,0.0
964868577,730,2020-07-28/964868577s730ms.jpg,964868577s730ms.jpg,803,30422,32564,32867,0.099121094,-0.036621094,1.159668,0.9720458764751,-0.3591302514751,11.372458192199998,430435787.0,-1036557338,25.399999999999977,1.1,305.07,32745,32785,32943,-0.85365856,-12.865853,0.9756098,32755,32525,31196,-0.9,0.63,-0.04,1.0,0.0,0.0,0.0
964868577,730,2020-07-28/964868577s730ms.jpg,964868577s730ms.jpg,793,30695,32585,32985,0.08886719,-0.09423828,1.0263672,0.8714894288134999,-0.924161828562,10.065223901879998,430435774.0,-1036557318,25.399999999999977,1.088,304.86,32725,32778,32900,-0.42682928,-10.243902,2.195122,32759,32537,31194,-0.89,0.62,-0.04,1.0,0.0,0.0,0.0
964868577,730,2020-07-28/964868577s730ms.jpg,964868577s730ms.jpg,883,30238,32792,33007,-0.012207031,-0.10498047,1.2495117,-0.1197100805561499,-1.0295067261255,12.253523912805,430435938.0,-1036557795,25.399999999999977,1.261,306.61,33213,32785,33052,-0.85365856,-19.512196,-27.560976,32759,32548,31190,-1.01,0.75,-0.04,1.0,0.0,0.0,0.0
964868577,730,2020-07-28/964868577s730ms.jpg,964868577s730ms.jpg,482,30683,32723,33052,0.021484375,-0.12695312,1.0322266,0.21068974609375,-1.244984814248,10.12268498689,430435579.0,-1036556697,25.600000000000023,0.828,311.69,32130,32868,32801,-5.914634,-4.207317,38.47561,32759,32500,31190,-0.61,0.55,-0.04,1.0,0.0,0.0,0.0
964868577,730,2020-07-28/964868577s730ms.jpg,964868577s730ms.jpg,201,30505,33104,33341,-0.16455078,-0.2680664,1.1191406000000002,-1.613691906687,-2.6288333615599995,10.97502016499,430435296.0,-1036556446,25.79999999999995,0.0,146.73,32635,32830,32550,-3.597561,11.097561,7.6829267,32756,32514,31176,-0.31,0.13,-0.03,1.0,0.0,0.0,0.0
964868577,730,2020-07-28/964868577s730ms.jpg,964868577s730ms.jpg,151,31460,32663,33243,0.05078125,-0.22021484,0.65283203,0.4979939453125,-2.159569860686,6.402095226999498,430435241.0,-1036556376,25.79999999999995,0.0,146.73,32928,32734,32564,2.2560976000000004,10.243902,-10.182927,32753,32503,31178,0.1,-0.23,-0.03,1.0,0.0,0.0,0.0
964868577,730,2020-07-28/964868577s730ms.jpg,964868577s730ms.jpg,91,31011,33019,33404,-0.123046875,-0.29882812,0.8720703000000002,-1.20667763671875,-2.9305027829979995,8.552088207494997,430435208.0,-1036556332,25.79999999999995,0.0,146.73,33164,32749,32741,1.3414634,-0.5487805,-24.573172,32752,32508,31179,0.07,-0.18,-0.04,1.0,0.0,0.0,0.0
964868577,730,2020-07-28/964868577s730ms.jpg,964868577s730ms.jpg,81,31051,33125,33303,-0.17480469,-0.24951172,0.85253906,-1.7142484131885,-2.446874108938,8.360552172749,430435201.0,-1036556325,25.79999999999995,0.0,146.73,33166,32742,32741,1.7682927,-0.5487805,-24.695122,32752,32511,31180,0.07,-0.16,-0.04,1.0,0.0,0.0,0.0
964868577,730,2020-07-28/964868577s730ms.jpg,964868577s730ms.jpg,381,30410,33161,32855,-0.19238281,-0.030761719,1.1655273000000002,-1.8866308836865,-0.30166941163135,11.429918296545,430435513.0,-1036556632,25.600000000000023,0.6970000000000001,308.46,32091,32879,32632,-6.5853660000000005,6.097561,40.853657,32759,32496,31187,-0.54,0.43,-0.03,1.0,0.0,0.0,0.0
964868577,730,2020-07-28/964868577s730ms.jpg,964868577s730ms.jpg,321,31105,32729,33015,0.018554688,-0.10888672,0.8261719000000001,0.1819593310752,-1.067813952688,8.101978663134997,430435392.0,-1036556565,25.79999999999995,0.5479999999999999,302.73,32066,32755,32532,0.9756098,12.195122,42.378048,32759,32503,31183,-0.46,0.29,-0.03,1.0,0.0,0.0,0.0
964868577,730,2020-07-28/964868577s730ms.jpg,964868577s730ms.jpg,291,30664,32957,33390,-0.09277344,-0.2919922,1.0415039,-0.909796655376,-2.8634653081299994,10.213664220934998,430435357.0,-1036556497,25.79999999999995,0.485,302.1,32149,32792,32525,-1.2804878,12.621951,37.317074,32768,32540,31172,-0.41,0.25,-0.03,1.0,0.0,0.0,0.0
964868624,710,2020-07-28/964868624s710ms.jpg,964868624s710ms.jpg,681,30332,32243,32469,0.25585938,0.15771484,1.2036133,2.509123388877,1.5466542356859998,11.803414368445,430420821.0,-1036541807,-48.19999999999999,1.665,215.95,32304,32574,32915,12.012196,-11.158537,27.865854,32730,32464,31331,-0.97,-1.34,-0.21,1.0,0.0,0.0,1.0
964868624,710,2020-07-28/964868624s710ms.jpg,964868624s710ms.jpg,526,30444,32969,33607,-0.09863281,-0.39794922,1.1489258,-0.9672574461865,-3.902548718313,11.26711319657,430421103.0,-1036541514,-47.80000000000001,1.156,255.53,32348,32823,32781,-3.1707318,-2.987805,25.182926,32725,32445,31334,-1.11,-0.28,-0.2,1.0,0.0,0.0,1.0
964868624,710,2020-07-28/964868624s710ms.jpg,964868624s710ms.jpg,731,30461,32782,33092,-0.0073242188,-0.14648438,1.140625,-0.07182605029502,-1.436521045127,11.18571015625,430420585.0,-1036541966,-48.600000000000016,2.15,204.29,32495,32677,33047,5.731707,-19.207317,16.219513,32726,32458,31336,-0.88,-1.95,-0.22,1.0,0.0,0.0,1.0
964868624,710,2020-07-28/964868624s710ms.jpg,964868624s710ms.jpg,976,30118,33559,33111,-0.38671875,-0.15576172,1.3081055,-3.7924154296875,-1.527500671438,12.828132801574998,430420189.0,-1036541923,-49.399999999999984,1.7080000000000002,176.61,33123,32765,32924,0.36585367,-11.707317,-22.073172,32713,32461,31343,0.1,-1.7,-0.22,1.0,0.0,0.0,1.0
964868624,710,2020-07-28/964868624s710ms.jpg,964868624s710ms.jpg,904,32408,32743,34240,0.01171875,-0.70703125,0.1899414,0.1149216796875,-6.9336080078125,1.86268883031,430420275.0,-1036542012,-49.0,1.972,190.02,33048,32680,33115,5.5487804,-23.353659,-17.5,32715,32457,31344,-0.34,-1.94,-0.22,1.0,0.0,0.0,1.0
964868624,710,2020-07-28/964868624s710ms.jpg,964868624s710ms.jpg,894,31250,32650,33577,0.0571289059999999,-0.38330078,0.7553711,0.5602431860249,-3.758896594187,7.407659997814998,430420290.0,-1036542016,-49.0,2.007,191.16,33042,32669,33136,6.219512,-24.634146,-17.134145999999998,32716,32455,31344,-0.38,-1.96,-0.22,1.0,0.0,0.0,1.0
964868624,710,2020-07-28/964868624s710ms.jpg,964868624s710ms.jpg,802,30214,31912,33237,0.41748047,-0.21728516,1.2612305,4.0940848511255,-2.130839514314,12.368446082825,430420457.0,-1036541982,-48.80000000000001,2.185,197.97,32788,32717,33132,3.292683,-24.390244,-1.6463414,32723,32455,31341,-0.67,-2.07,-0.22,1.0,0.0,0.0,1.0
964868624,710,2020-07-28/964868624s710ms.jpg,964868624s710ms.jpg,178,30148,32705,32805,0.030273438,-0.0063476562,1.293457,0.2968810107627,-0.06224924267373,12.68448008905,430421153.0,-1036540605,-46.80000000000001,1.069,310.08,32160,32663,32759,6.5853660000000005,-1.6463414,36.646343,32734,32468,31323,-0.81,0.68,-0.19,1.0,0.0,0.0,1.0
964868624,710,2020-07-28/964868624s710ms.jpg,964868624s710ms.jpg,138,31128,32719,33968,0.0234375,-0.57421875,0.8149414,0.229843359375,-5.6311623046875,7.99184508031,430421114.0,-1036540508,-46.80000000000001,1.176,323.01,31960,32750,32722,1.2804878,0.6097561,48.841465,32728,32453,31327,-0.7,0.93,-0.19,1.0,0.0,0.0,1.0
964868624,710,2020-07-28/964868624s710ms.jpg,964868624s710ms.jpg,128,30255,33123,33376,-0.17382812,-0.28515625,1.2412108999999998,-1.704671532998,-2.7964275390625,12.172120872485,430421114.0,-1036540487,-46.80000000000001,1.185,325.41,31918,32734,32753,2.2560976000000004,-1.2804878,51.402440000000006,32730,32463,31326,-0.67,0.97,-0.19,1.0,0.0,0.0,1.0
964868624,710,2020-07-28/964868624s710ms.jpg,964868624s710ms.jpg,108,30447,33216,33029,-0.21923828,-0.115722656,1.1474608999999998,-2.1499930785620003,-1.1348515844624,11.252747434985,430421083.0,-1036540466,-46.600000000000016,1.21,326.18,31906,32752,32680,1.1585366,3.1707318,52.134148,32731,32472,31322,-0.67,1.0,-0.19,1.0,0.0,0.0,1.0
964868624,710,2020-07-28/964868624s710ms.jpg,964868624s710ms.jpg,78,31536,32995,33355,-0.111328125,-0.27490234,0.61572266,-1.0917559570312498,-2.695871032561,6.038176623688999,430421060.0,-1036540359,-46.600000000000016,1.165,331.34,31939,32790,32607,-1.1585366,7.621950999999999,50.121952,32725,32462,31326,-0.55,1.02,-0.19,1.0,0.0,0.0,1.0
964868624,710,2020-07-28/964868624s710ms.jpg,964868624s710ms.jpg,67,31516,32980,33324,-0.104003906,-0.25976562,0.6254883000000001,-1.0199299047749,-2.5474305173729994,6.133944837194999,430421052.0,-1036540295,-46.600000000000016,1.03,337.55,31936,32800,32626,-1.7682927,6.4634147,50.30488,32725,32464,31326,-0.39,0.95,-0.19,1.0,0.0,0.0,1.0
964868624,710,2020-07-28/964868624s710ms.jpg,964868624s710ms.jpg,57,30787,32917,32818,-0.07324219,-0.0126953125,0.9814453000000002,-0.7182605225634999,-0.124498486328125,9.624690551245,430421050.0,-1036540243,-46.600000000000016,1.007,342.74,31944,32822,32621,-3.109756,6.768292999999999,49.817074,32728,32476,31323,-0.29,0.96,-0.18,1.0,0.0,0.0,1.0
964868624,710,2020-07-28/964868624s710ms.jpg,964868624s710ms.jpg,47,30184,33047,32590,-0.13671875,0.09863281,1.2758789,-1.3407529296874998,0.9672574461865,12.512097814685,430421043.0,-1036540203,-46.600000000000016,0.99,345.05,31974,32850,32618,-4.8170733,6.9512196,47.987804,32732,32491,31317,-0.25,0.95,-0.18,1.0,0.0,0.0,1.0
964868624,710,2020-07-28/964868624s710ms.jpg,964868624s710ms.jpg,17,30734,33084,32693,-0.15478516,0.048339844,1.0073242,-1.517923889314,0.4740519311626,9.87847586593,430421017.0,-1036540108,-46.399999999999984,0.923,350.46,32132,32821,32620,-3.0487804,6.8292685,38.353657,32728,32486,31320,-0.15,0.91,-0.18,1.0,0.0,0.0,1.0
964868624,710,2020-07-28/964868624s710ms.jpg,964868624s710ms.jpg,252,30668,32471,32899,0.14453125,-0.052246094,1.0395508,1.4173673828125,-0.5123591577251,10.19451085282,430421159.0,-1036540815,-47.19999999999999,0.957,296.05,32517,32567,32797,12.439024,-3.9634147,14.878049,32733,32457,31326,-0.85,0.42,-0.2,1.0,0.0,0.0,1.0
964868624,710,2020-07-28/964868624s710ms.jpg,964868624s710ms.jpg,404,30853,33147,33086,-0.18554688,-0.14355469,0.94921875,-1.819593310752,-1.4077906006885,9.3086560546875,430421149.0,-1036541217,-47.600000000000016,0.985,275.06,32426,32823,32729,-3.1707318,0.18292683,20.426828,32726,32442,31332,-0.98,0.08,-0.2,1.0,0.0,0.0,1.0
964868624,710,2020-07-28/964868624s710ms.jpg,964868624s710ms.jpg,373,30907,32553,32303,0.10449219,0.23876953,0.92285156,1.0247183350635,2.3415292113745,9.050082250874,430421165.0,-1036541136,-47.399999999999984,1.004,281.16,32508,32731,32797,2.4390244,-3.9634147,15.426829,32735,32473,31325,-0.98,0.19,-0.2,1.0,0.0,0.0,1.0
964868624,710,2020-07-28/964868624s710ms.jpg,964868624s710ms.jpg,342,30729,33054,33331,-0.14013672,-0.2631835999999999,1.0097656,-1.374271765188,-2.58094945094,9.902417821239998,430421190.0,-1036541046,-47.399999999999984,1.004,292.47,32563,32771,32825,0.0,-5.6707315000000005,12.073171,32726,32441,31331,-0.92,0.38,-0.2,1.0,0.0,0.0,1.0
964868569,722,2020-07-28/964868569s722ms.jpg,964868569s722ms.jpg,720,32210,31936,33970,0.40576172,-0.5751953000000001,0.2866210999999999,3.979163171438,-5.640738988745,2.810792810315,430449647.0,-1036557944,42.0,2.363,215.56,33786,32315,33359,27.804878,-38.23171,-62.5,32756,32536,31214,-1.37,-1.92,-0.31,0.0,0.0,0.0,0.0
964868569,722,2020-07-28/964868569s722ms.jpg,964868569s722ms.jpg,680,29628,31938,32827,0.40478516,-0.017089844,1.5473633,3.969586389314,-0.1675941186626,15.174450305945,430449828.0,-1036557775,42.200000000000045,2.362,216.07,33273,32443,33326,20.0,-36.219513,-31.219513,32754,32504,31218,-1.39,-1.9,-0.31,0.0,0.0,0.0,0.0
964868569,722,2020-07-28/964868569s722ms.jpg,964868569s722ms.jpg,670,29592,31914,32592,0.4165039000000001,0.09765625,1.5649414,4.084507970934999,0.9576806640625,15.346832580309998,430449865.0,-1036557738,42.200000000000045,2.39,215.53,33264,32424,33372,21.158537,-39.02439,-30.670732,32756,32505,31216,-1.38,-1.94,-0.31,0.0,0.0,0.0,0.0
964868569,722,2020-07-28/964868569s722ms.jpg,964868569s722ms.jpg,962,28205,33595,31133,-0.40429688,0.8100586,2.2421875,-3.964797998252,7.943961169689999,21.988348046875,430448240.0,-1036558918,41.0,3.307,201.46,33033,32925,32793,-9.390244,-3.719512200000001,-16.585365,32737,32552,31202,-1.2,-3.07,-0.31,0.0,0.0,0.0,0.0
964868569,722,2020-07-28/964868569s722ms.jpg,964868569s722ms.jpg,942,34399,33048,33917,-0.13720703,-0.5493164,-0.78222656,-1.3455413207495002,-5.38695367406,-7.671022094624,430448340.0,-1036558848,41.200000000000045,3.254,202.36,33373,32573,32831,12.073171,-6.0365853,-37.317074,32735,32548,31207,-1.23,-3.0,-0.31,0.0,0.0,0.0,0.0
964868569,722,2020-07-28/964868569s722ms.jpg,964868569s722ms.jpg,872,31660,33510,35250,-0.36279297,-1.2001953,0.5551758000000001,-3.5577836792504995,-11.769895238745,5.44441475907,430448735.0,-1036558600,41.39999999999998,3.033,206.3,33376,32615,32966,9.512196,-14.268292,-37.5,32740,32549,31208,-1.34,-2.71,-0.31,0.0,0.0,0.0,0.0
964868569,722,2020-07-28/964868569s722ms.jpg,964868569s722ms.jpg,862,30394,33711,33920,-0.4609375,-0.55078125,1.1733398000000002,-4.520252734375,-5.4013189453125,11.50653274967,430448793.0,-1036558564,41.39999999999998,3.014,206.79,33330,32656,33173,7.012194999999999,-26.890244,-34.69512,32739,32539,31208,-1.35,-2.69,-0.31,0.0,0.0,0.0,0.0
964868569,722,2020-07-28/964868569s722ms.jpg,964868569s722ms.jpg,811,31148,32480,33846,0.14013672,-0.51464844,0.8051758000000001,1.374271765188,-5.046977124125999,7.896077259069999,430449103.0,-1036558338,41.60000000000002,2.817,209.27,33569,32605,33312,10.121951,-35.365852000000004,-49.26829,32750,32560,31204,-1.37,-2.45,-0.31,0.0,0.0,0.0,0.0
964868569,722,2020-07-28/964868569s722ms.jpg,964868569s722ms.jpg,801,29788,32327,32923,0.21484375,-0.063964844,1.4692383,2.1068974609375,-0.6272808374126,14.408305774694998,430449181.0,-1036558290,41.60000000000002,2.7110000000000003,210.11,33445,32679,33264,5.609756,-32.439026,-41.707317,32749,32551,31208,-1.35,-2.34,-0.31,0.0,0.0,0.0,0.0
964868569,722,2020-07-28/964868569s722ms.jpg,964868569s722ms.jpg,791,29358,32369,32978,0.19433594,-0.09082031,1.6791991999999998,1.905784546001,-0.8906429930615001,16.46731883468,430449259.0,-1036558245,41.79999999999996,2.674,211.05,33372,32759,33145,0.73170733,-25.182926,-37.256096,32746,32531,31213,-1.37,-2.29,-0.31,0.0,0.0,0.0,0.0
964868569,722,2020-07-28/964868569s722ms.jpg,964868569s722ms.jpg,6,30939,31751,33470,0.49609375,-0.3310547,0.90722656,4.8650177734375,-3.2465375737549995,8.896853344623999,430452468.0,-1036554943,44.600000000000016,2.568,242.71,33109,32550,33156,13.47561,-25.853659,-21.219513,32766,32485,31178,-2.28,-1.17,-0.31,0.0,0.0,0.0,0.0
964868569,722,2020-07-28/964868569s722ms.jpg,964868569s722ms.jpg,166,32076,33278,34128,-0.24951172,-0.65234375,0.35205078,-2.446874108938,-6.3973068359375,3.452438781687,430451732.0,-1036555799,44.0,2.639,235.09,32388,32696,32751,4.5731707,-1.1585366,22.743902,32764,32489,31178,-2.16,-1.51,-0.3,0.0,0.0,0.0,0.0
964868569,722,2020-07-28/964868569s722ms.jpg,964868569s722ms.jpg,136,30395,33347,33329,-0.28320312,-0.26220703,1.1728516000000002,-2.777273876748,-2.5713725707495,11.50174514314,430451808.0,-1036555655,44.0,2.664,232.86,32802,32694,32940,4.6951220000000005,-12.682927,-2.5,32763,32486,31180,-2.12,-1.6,-0.31,0.0,0.0,0.0,0.0
964868569,722,2020-07-28/964868569s722ms.jpg,964868569s722ms.jpg,116,30897,32879,33148,-0.0546875,-0.17382812,0.9277344,-0.5363011718749999,-1.704671532998,9.09796655376,430451877.0,-1036555562,44.0,2.6710000000000003,232.96,33205,32640,32992,7.987805000000001,-15.853659,-27.073172,32768,32504,31174,-2.13,-1.6,-0.31,0.0,0.0,0.0,0.0
964868569,722,2020-07-28/964868569s722ms.jpg,964868569s722ms.jpg,96,31578,32353,33348,0.20214844,-0.27148438,0.59521484,1.982398999126,-2.662352295127,5.837063610686001,430451978.0,-1036555489,44.200000000000045,2.6630000000000003,235.37,33363,32588,32999,11.158537,-16.280487,-36.707317,32766,32493,31178,-2.19,-1.51,-0.31,0.0,0.0,0.0,0.0
964868569,722,2020-07-28/964868569s722ms.jpg,964868569s722ms.jpg,76,30493,32524,32716,0.118652344,0.037109375,1.125,1.1635820092876,0.36391865234375,11.03248125,430452155.0,-1036555303,44.399999999999984,2.6260000000000003,238.67,33327,32580,33072,11.646341,-20.731707,-34.512196,32763,32481,31181,-2.24,-1.36,-0.31,0.0,0.0,0.0,0.0
964868569,722,2020-07-28/964868569s722ms.jpg,964868569s722ms.jpg,478,29344,32558,32034,0.10205078,0.3701172,1.6860351999999998,1.0007762816869998,3.62960983938,16.53435709408,430450552.0,-1036556979,42.79999999999996,2.589,204.56,32548,32701,32929,4.268293,-12.012196,12.987804,32760,32488,31207,-1.07,-2.35,-0.31,0.0,0.0,0.0,0.0
964868569,722,2020-07-28/964868569s722ms.jpg,964868569s722ms.jpg,388,31453,32338,33537,0.20947266,-0.36376953,0.65625,2.054225061189,-3.5673604613745,6.4356140625,430451019.0,-1036556693,43.200000000000045,2.418,221.22,32360,32641,32795,7.9268293,-3.8414633,24.451220000000003,32760,32480,31202,-1.59,-1.81,-0.31,0.0,0.0,0.0,0.0
964868569,722,2020-07-28/964868569s722ms.jpg,964868569s722ms.jpg,348,31312,32941,34339,-0.08496094,-0.7553711,0.72509766,-0.8331822022509999,-7.407659997814998,7.110778967439,430451161.0,-1036556570,43.200000000000045,2.487,228.02,31810,32690,32484,4.939024400000001,15.121951,57.987804,32771,32513,31189,-1.84,-1.66,-0.31,0.0,0.0,0.0,0.0
964868569,722,2020-07-28/964868569s722ms.jpg,964868569s722ms.jpg,318,29505,33103,32381,-0.1640625,0.2006836,1.6074218999999998,-1.608903515625,1.96803382594,15.763423975635,430451266.0,-1036556472,43.399999999999984,2.476,231.85,31609,32780,32588,-0.5487805,8.780488,70.243904,32761,32486,31196,-1.94,-1.52,-0.31,0.0,0.0,0.0,0.0
964868631,717,2020-07-28/964868631s717ms.jpg,964868631s717ms.jpg,652,30871,32662,33031,0.05126953,-0.11669922,0.9404296999999998,0.5027823363745,-1.144428405813,9.222464917505,430418851.0,-1036538849,-52.80000000000001,0.0,106.68,32214,32981,32637,-12.804878,5.792683,33.353657,32703,32490,31351,0.28,0.06,-0.06,2.0,0.0,1.0,1.0
964868631,717,2020-07-28/964868631s717ms.jpg,964868631s717ms.jpg,672,30933,32906,33103,-0.067871094,-0.15185547,0.91015625,-0.6655880639751001,-1.4891934448754998,8.9255837890625,430418880.0,-1036538785,-52.600000000000016,0.311,76.12,32254,32973,32713,-12.317073,1.1585366,30.914635,32700,32473,31356,0.3,0.07,-0.06,2.0,0.0,1.0,1.0
964868631,717,2020-07-28/964868631s717ms.jpg,964868631s717ms.jpg,591,30978,33002,33073,-0.114746094,-0.13720703,0.8881836,-1.1252747827251002,-1.3455413207495002,8.71010570094,430418782.0,-1036539048,-53.399999999999984,0.0,106.68,32281,32991,32542,-13.414634,11.585366,29.268293,32697,32490,31354,0.23,-0.08,-0.07,2.0,0.0,1.0,1.0
964868631,717,2020-07-28/964868631s717ms.jpg,964868631s717ms.jpg,571,31022,33524,32953,-0.3696289,-0.07861328,0.8666992,-3.624821252185,-0.770932922312,8.499415709680001,430418772.0,-1036539107,-53.600000000000016,0.0,106.68,32333,32962,32626,-11.646341,6.4634147,26.09756,32702,32515,31349,0.23,-0.08,-0.08,2.0,0.0,1.0,1.0
964868631,717,2020-07-28/964868631s717ms.jpg,964868631s717ms.jpg,977,31229,32201,33312,0.2763672,-0.25390625,0.765625,2.71023640188,-2.4899697265625,7.50821640625,430418102.0,-1036538820,-49.399999999999984,0.313,108.63,33217,32912,32933,-8.597561,-12.256098,-27.804878,32711,32502,31336,0.29,-0.09,-0.06,2.0,0.0,1.0,1.0
964868631,717,2020-07-28/964868631s717ms.jpg,964868631s717ms.jpg,945,30907,32651,33738,0.056640625,-0.46191406,0.92285156,0.55545478515625,-4.529829516499,9.050082250874,430418199.0,-1036538784,-49.80000000000001,0.317,102.67,33211,32974,32884,-12.378049,-9.268292,-27.439024,32709,32492,31338,0.3,-0.06,-0.06,2.0,0.0,1.0,1.0
964868631,717,2020-07-28/964868631s717ms.jpg,964868631s717ms.jpg,915,30453,32438,33127,0.16064453,-0.16357422,1.1445312,1.5753846801245002,-1.604115124563,11.224016892480002,430418266.0,-1036538753,-50.19999999999999,0.316,100.59,33176,33054,32934,-17.256098,-12.317073,-25.304878,32719,32523,31330,0.31,-0.05,-0.06,2.0,0.0,1.0,1.0
964868631,717,2020-07-28/964868631s717ms.jpg,964868631s717ms.jpg,793,30804,32595,32803,0.083984375,-0.0053710938,0.97314453,0.82360537109375,-0.05267243701377,9.5432878051245,430418598.0,-1036538619,-51.399999999999984,0.355,90.65,32994,32987,32924,-13.170732,-11.707317,-14.207317000000002,32714,32509,31342,0.35,0.0,-0.06,2.0,0.0,1.0,1.0
964868631,717,2020-07-28/964868631s717ms.jpg,964868631s717ms.jpg,490,30471,33515,33405,-0.36523438,-0.2993164,1.1357422,-3.581725732627,-2.93529117406,11.13782624563,430418707.0,-1036539337,-54.600000000000016,0.0,106.68,32556,33090,32777,-19.451220000000003,-2.7439024,12.5,32688,32501,31357,0.24,-0.08,-0.1,2.0,0.0,1.0,1.0
964868631,717,2020-07-28/964868631s717ms.jpg,964868631s717ms.jpg,105,30061,32710,33073,0.027832031,-0.13720703,1.3359375,0.27293898680615,-1.3455413207495002,13.101071484375,430418413.0,-1036540303,-59.399999999999984,0.568,135.76,32335,32754,32767,1.0365853,-2.1341465,25.975609,32699,32513,31348,0.39,-0.4,-0.21,2.0,0.0,1.0,1.0
964868631,717,2020-07-28/964868631s717ms.jpg,964868631s717ms.jpg,85,30360,32509,33432,0.12597656,-0.3125,1.1899414,1.2354080321239995,-3.064578125,11.669338830309998,430418413.0,-1036540332,-59.600000000000016,0.621,141.04,32332,32829,32663,-3.5365853,4.207317,26.158537,32705,32535,31339,0.39,-0.48,-0.23,2.0,0.0,1.0,1.0
964868631,717,2020-07-28/964868631s717ms.jpg,964868631s717ms.jpg,51,30774,32393,33026,0.18261719,-0.11425781,0.98779297,1.7908628663135,-1.1204863524365,9.6869399292505,430418418.0,-1036540368,-60.0,0.71,145.69,32339,32830,32560,-3.597561,10.487804,25.731707,32695,32498,31350,0.4,-0.58,-0.3,2.0,0.0,1.0,1.0
964868631,717,2020-07-28/964868631s717ms.jpg,964868631s717ms.jpg,10,30708,32222,33270,0.26611328,-0.23339844,1.0200195,2.6096797973120003,-2.288856811626,10.002974229675,430418433.0,-1036540426,-60.399999999999984,0.8909999999999999,144.94,32563,32903,32566,-8.04878,10.121951,12.073171,32699,32527,31343,0.51,-0.72,-0.3,2.0,0.0,1.0,1.0
964868631,717,2020-07-28/964868631s717ms.jpg,964868631s717ms.jpg,225,30554,32239,33066,0.2578125,-0.13378906,1.0952148000000002,2.528276953125,-1.312022485249,10.740388218419998,430418390.0,-1036540011,-57.80000000000001,0.487,107.23,32312,32785,32783,-0.85365856,-3.109756,27.378048,32694,32498,31355,0.46,-0.14,-0.15,2.0,0.0,1.0,1.0
964868631,717,2020-07-28/964868631s717ms.jpg,964868631s717ms.jpg,125,30238,33213,32970,-0.21777344,-0.08691406,1.2495117,-2.135627905376,-0.852335766499,12.253523912805,430418382.0,-1036540270,-59.0,0.53,132.09,32286,32667,32707,6.3414636,1.5243902,28.963415,32696,32495,31353,0.39,-0.35,-0.19,2.0,0.0,1.0,1.0
964868631,717,2020-07-28/964868631s717ms.jpg,964868631s717ms.jpg,392,31220,32711,32809,0.02734375,-0.008300781,0.77001953,0.2681505859375,-0.0814028539936499,7.5513120238745,430418531.0,-1036539645,-55.80000000000001,0.0,106.68,33013,32939,33034,-10.243902,-18.414635,-15.365853,32682,32493,31363,0.29,-0.1,-0.13,2.0,0.0,1.0,1.0
964868631,717,2020-07-28/964868631s717ms.jpg,964868631s717ms.jpg,369,31330,32470,32968,0.14501953,-0.0859375,0.7163086,1.4221557738745,-0.842758984375,7.02458773219,430418508.0,-1036539696,-56.0,0.0,106.68,33000,32913,33065,-8.658536999999999,-20.304878,-14.573171,32683,32494,31364,0.32,-0.11,-0.13,2.0,0.0,1.0,1.0
964868631,717,2020-07-28/964868631s717ms.jpg,964868631s717ms.jpg,349,30847,32427,33533,0.16601562,-0.3618164,0.95214844,1.628057079873,-3.5482067990599995,9.337386499126,430418489.0,-1036539740,-56.399999999999984,0.392,106.68,32984,32819,33079,-2.9268293,-21.158537,-13.597561,32687,32504,31357,0.37,-0.11,-0.13,2.0,0.0,1.0,1.0
964868631,717,2020-07-28/964868631s717ms.jpg,964868631s717ms.jpg,265,30283,32570,33573,0.096191406,-0.38134766,1.2275391000000002,0.9433154516498998,-3.739743029939,12.038046315015,430418456.0,-1036539866,-57.399999999999984,0.509,99.71,32286,32667,32842,6.3414636,-6.707317,28.963415,32688,32490,31363,0.5,-0.08,-0.15,2.0,0.0,1.0,1.0
964868647,700,2020-07-28/964868647s700ms.jpg,964868647s700ms.jpg,585,29868,33413,32465,-0.3154297,0.15966797,1.4301758,-3.093308667505,1.5658078980005,14.02523350907,430453637.0,-1036520925,-75.19999999999997,3.127,347.89,33184,32891,32826,-7.3170733,-5.731707,-25.792683,32714,32531,31314,-0.65,3.05,-0.35,2.0,0.0,1.0,1.0
964868647,700,2020-07-28/964868647s700ms.jpg,964868647s700ms.jpg,745,30191,32730,33112,0.018066406,-0.15625,1.2724608999999998,0.1771709203998999,-1.5322890625,12.478578684985,430453766.0,-1036521227,-76.0,2.91,352.63,32586,32690,32615,4.939024400000001,7.134146,10.670732,32718,32537,31308,-0.37,2.88,-0.36,2.0,0.0,1.0,1.0
964868647,700,2020-07-28/964868647s700ms.jpg,964868647s700ms.jpg,978,32722,32755,34035,0.005859375,-0.6069336,0.036621094,0.05746083984375,-5.951985388439999,0.3591302514751,430453503.0,-1036522034,-77.39999999999998,2.275,336.24,32002,32527,32632,14.878049,6.097561,46.280487,32711,32494,31337,-0.91,2.08,-0.37,2.0,0.0,1.0,1.0
964868647,700,2020-07-28/964868647s700ms.jpg,964868647s700ms.jpg,948,30320,32858,32805,-0.044433594,-0.0063476562,1.2094726999999998,-0.4357447046001,-0.06224924267373,11.860875453455,430453526.0,-1036521893,-77.39999999999998,2.168,340.87,32035,32464,32693,18.719513,2.3780490000000003,44.26829,32718,32522,31329,-0.71,2.04,-0.39,2.0,0.0,1.0,1.0
964868647,700,2020-07-28/964868647s700ms.jpg,964868647s700ms.jpg,858,30533,32718,32539,0.023925781,0.123535156,1.1054688,0.23463176024365,1.2114660375873998,10.840945607519998,430453683.0,-1036521562,-76.60000000000002,2.396,345.14,32167,32482,32644,17.621952,5.365854,36.219513,32712,32506,31326,-0.61,2.31,-0.38,2.0,0.0,1.0,1.0
964868647,700,2020-07-28/964868647s700ms.jpg,964868647s700ms.jpg,848,30856,32800,32974,-0.016113281,-0.08886719,0.9477539,-0.1580173071186499,-0.8714894288134999,9.294290783435,430453691.0,-1036521528,-76.60000000000002,2.4330000000000003,345.9,32233,32486,32593,17.378048,8.475610000000001,32.19512,32714,32513,31323,-0.59,2.35,-0.38,2.0,0.0,1.0,1.0
964868647,700,2020-07-28/964868647s700ms.jpg,964868647s700ms.jpg,777,31537,32320,33676,0.21826172,-0.43164062,0.6152344,2.140416296438,-4.232948486122998,6.03338842876,430453745.0,-1036521311,-76.19999999999997,2.736,351.1,32511,32584,32547,11.402439,11.280488,15.243902,32717,32526,31313,-0.42,2.7,-0.37,2.0,0.0,1.0,1.0
964868647,700,2020-07-28/964868647s700ms.jpg,964868647s700ms.jpg,149,31057,33403,32498,-0.31054688,0.14355469,0.8496094000000001,-3.045424560752,1.4077906006885,8.33182202251,430452475.0,-1036519902,-73.0,3.064,348.93,32236,32830,32397,-3.597561,20.426828,32.012196,32717,32588,31294,-0.58,3.0,-0.29,2.0,0.0,1.0,1.0
964868647,700,2020-07-28/964868647s700ms.jpg,964868647s700ms.jpg,98,30581,33246,33386,-0.23388672,-0.29003906,1.0820312,-2.293645202688,-2.844311547749,10.61110126748,430452384.0,-1036519790,-72.80000000000003,3.132,349.09,32329,32772,32399,-0.06097561,20.304878,26.341463,32708,32583,31292,-0.59,3.07,-0.29,2.0,0.0,1.0,1.0
964868647,700,2020-07-28/964868647s700ms.jpg,964868647s700ms.jpg,78,31238,33411,33587,-0.31445312,-0.3881835999999999,0.76123047,-3.083731689248,-3.806780700940001,7.4651207886255,430452323.0,-1036519758,-72.80000000000003,3.172,348.73,32378,32841,32391,-4.268293,20.792683,23.353659,32706,32580,31291,-0.62,3.11,-0.29,2.0,0.0,1.0,1.0
964868647,700,2020-07-28/964868647s700ms.jpg,964868647s700ms.jpg,48,30820,33068,33435,-0.14697266,-0.31396484,0.96533203,-1.441309436189,-3.078943298186,9.4666733519995,430452347.0,-1036519672,-72.80000000000003,3.335,347.89,32595,32848,32286,-4.6951220000000005,27.195122,10.121951,32700,32573,31294,-0.69,3.26,-0.28,2.0,0.0,1.0,1.0
964868647,700,2020-07-28/964868647s700ms.jpg,964868647s700ms.jpg,8,30227,32246,32053,0.25439453,0.36083984,1.2548828,2.4947581176245,3.538630016936,12.30619641062,430452353.0,-1036519554,-72.60000000000002,3.565,347.73,32915,32746,32316,1.5243902,25.365854,-9.390244,32699,32588,31292,-0.75,3.48,-0.28,2.0,0.0,1.0,1.0
964868647,700,2020-07-28/964868647s700ms.jpg,964868647s700ms.jpg,231,30952,32532,33267,0.114746094,-0.2319336,0.9008789,1.1252747827251002,-2.27449163844,8.834604064685001,430452517.0,-1036520138,-73.19999999999997,2.777,342.88,31862,32769,32474,0.12195122,15.731708,54.817074,32714,32553,31302,-0.81,2.65,-0.3,2.0,0.0,1.0,1.0
964868647,700,2020-07-28/964868647s700ms.jpg,964868647s700ms.jpg,251,31183,32907,33127,-0.068359375,-0.16357422,0.78808594,-0.6703764648437499,-1.604115124563,7.728482983500999,430452470.0,-1036520231,-73.39999999999998,2.72,341.86,31842,32789,32480,-1.097561,15.365853,56.036587,32711,32527,31314,-0.84,2.58,-0.3,2.0,0.0,1.0,1.0
964868647,700,2020-07-28/964868647s700ms.jpg,964868647s700ms.jpg,434,30909,32771,33380,-0.001953125,-0.28710938,0.921875,-0.01915361328125,-2.8155812013770003,9.04050546875,430453264.0,-1036520575,-74.39999999999998,3.149,344.09,32648,32846,32781,-4.5731707,-2.987805,6.890244,32719,32529,31313,-0.86,3.02,-0.33,2.0,0.0,1.0,1.0
964868647,700,2020-07-28/964868647s700ms.jpg,964868647s700ms.jpg,374,30004,33162,32970,-0.1928711,-0.08691406,1.3637695,-1.891419372815,-0.852335766499,13.374010167175,430452991.0,-1036520501,-74.0,3.104,341.33,32206,32899,32777,-7.804877999999999,-2.7439024,33.841465,32721,32536,31312,-0.99,2.94,-0.33,2.0,0.0,1.0,1.0
964868647,700,2020-07-28/964868647s700ms.jpg,964868647s700ms.jpg,354,30382,32869,33451,-0.049804688,-0.32177734,1.1791992,-0.4884171435752,-3.155557751311,11.56399383468,430452815.0,-1036520467,-73.80000000000003,2.914,340.58,32111,32880,32760,-6.6463413000000005,-1.7073171000000005,39.634148,32721,32542,31313,-0.96,2.74,-0.32,2.0,0.0,1.0,1.0
964868647,700,2020-07-28/964868647s700ms.jpg,964868647s700ms.jpg,261,31662,33046,33234,-0.13623047,-0.21582031,0.5541991999999999,-1.3359645386255,-2.1164742430615,5.43483758468,430452479.0,-1036520257,-73.39999999999998,2.692,341.89,31843,32785,32525,-0.85365856,12.621951,55.97561,32710,32523,31315,-0.83,2.55,-0.31,2.0,0.0,1.0,1.0
964868647,700,2020-07-28/964868647s700ms.jpg,964868647s700ms.jpg,324,32048,33183,33482,-0.203125,-0.33691406,0.36572266,-1.99197578125,-3.303998266499,3.586514123689,430452578.0,-1036520404,-73.60000000000002,2.654,340.6,31993,32862,32690,-5.5487804,2.5609756,46.82927,32724,32569,31306,-0.88,2.5,-0.31,2.0,0.0,1.0,1.0
964868647,700,2020-07-28/964868647s700ms.jpg,964868647s700ms.jpg,364,30080,33047,33092,-0.13671875,-0.14648438,1.3266601999999998,-1.3407529296874998,-1.436521045127,13.01009225033,430452909.0,-1036520483,-74.0,3.02,341.14,32175,32909,32763,-8.414634,-1.8902439,35.73171,32722,32540,31311,-0.97,2.85,-0.32,2.0,0.0,1.0,1.0
964868677,730,2020-07-28/964868677s730ms.jpg,964868677s730ms.jpg,647,30267,33762,33393,-0.48583984,-0.29345703,1.2353516000000002,-4.764461266936,-2.8778303832495,12.114660768139998,430500172.0,-1036462627,-113.39999999999998,1.543,61.54,33615,32780,33119,-0.5487805,-23.59756,-52.073170000000005,32675,32650,31250,1.35,0.73,-0.23,3.0,1.0,2.0,3.0
964868677,730,2020-07-28/964868677s730ms.jpg,964868677s730ms.jpg,667,32730,33410,32985,-0.31396484,-0.09423828,0.032714844,-3.078943298186,-0.924161828562,0.3208230249125999,430500230.0,-1036462567,-113.39999999999998,1.561,60.83,33550,32701,32821,4.268293,-5.4268293,-48.109756,32671,32638,31250,1.36,0.76,-0.23,3.0,1.0,2.0,3.0
964868677,730,2020-07-28/964868677s730ms.jpg,964868677s730ms.jpg,697,28183,32831,32247,-0.03125,0.26611328,2.2529297,-0.3064578125,2.6096797973120003,22.093693042505,430500308.0,-1036462483,-113.39999999999998,1.717,61.24,33362,32877,32852,-6.4634147,-7.3170733,-36.646343,32668,32631,31248,1.5,0.82,-0.23,3.0,1.0,2.0,3.0
964868677,730,2020-07-28/964868677s730ms.jpg,964868677s730ms.jpg,717,30652,33667,33688,-0.43945312,-0.4375,1.0473633,-4.309562939248,-4.290409374999999,10.271125305945,430500352.0,-1036462434,-113.39999999999998,1.744,61.48,33428,33027,32741,-15.609756,-0.5487805,-40.67073,32674,32660,31238,1.53,0.83,-0.23,3.0,1.0,2.0,3.0
964868677,730,2020-07-28/964868677s730ms.jpg,964868677s730ms.jpg,767,22705,33868,29222,-0.53759766,1.7431641,4.9277344,-5.272032092439,17.094600221264994,48.32456655375999,430500464.0,-1036462291,-113.60000000000002,1.894,64.15,33370,33225,33055,-27.682926,-19.695122,-37.134148,32665,32629,31236,1.7,0.82,-0.23,3.0,1.0,2.0,3.0
964868677,730,2020-07-28/964868677s730ms.jpg,964868677s730ms.jpg,951,30646,34014,32027,-0.6088866999999999,0.37353516,1.050293,-5.971138756555001,3.663128576814,10.29985584845,430500793.0,-1036461861,-113.39999999999998,2.066,65.47,33976,32500,32839,16.524391,-6.52439,-74.085365,32654,32639,31235,1.87,0.85,-0.24,3.0,1.0,2.0,3.0
964868677,730,2020-07-28/964868677s730ms.jpg,964868677s730ms.jpg,931,30652,34429,31494,-0.81152344,0.63378906,1.0473633,-7.958326342875999,6.215347485249,10.271125305945,430500808.0,-1036461904,-113.60000000000002,2.065,65.51,33426,32212,33189,34.085365,-27.865854,-40.548782,32659,32651,31234,1.87,0.85,-0.24,3.0,1.0,2.0,3.0
964868677,730,2020-07-28/964868677s730ms.jpg,964868677s730ms.jpg,889,29802,31783,31509,0.48046875,0.62646484,1.4624023000000002,4.7117888671875,6.143521423186001,14.341267515294998,430500720.0,-1036462011,-113.60000000000002,1.929,64.61,33135,32362,32927,24.939024,-11.890244,-22.804878,32660,32640,31245,1.74,0.82,-0.24,3.0,1.0,2.0,3.0
964868677,730,2020-07-28/964868677s730ms.jpg,964868677s730ms.jpg,857,35206,32200,32278,0.27685547,0.25097656,-1.1762695,2.7150246948755004,2.461239282124,-11.535263292175,430500645.0,-1036462103,-113.60000000000002,1.99,66.05,32873,31996,32633,47.256096,6.0365853,-6.8292685,32669,32662,31235,1.81,0.8,-0.24,3.0,1.0,2.0,3.0
964868677,730,2020-07-28/964868677s730ms.jpg,964868677s730ms.jpg,503,28472,33942,33640,-0.57373047,-0.4140625,2.1118164,-5.6263739136255,-4.060566015625,20.70984429906,430500213.0,-1036462747,-115.60000000000002,1.5019999999999998,71.99,32990,32186,32751,35.67073,-1.1585366,-13.963414000000002,32677,32636,31263,1.42,0.46,-0.23,3.0,1.0,2.0,3.0
964868677,730,2020-07-28/964868677s730ms.jpg,964868677s730ms.jpg,179,33249,31154,30354,0.78759766,1.1904297,-0.22070312,7.723694592438999,11.674127417504998,-2.164358251748,430500649.0,-1036463157,-123.60000000000002,1.361,67.76,33265,33006,32842,-14.329268,-6.707317,-30.731707,32711,32601,31273,1.25,0.51,-0.22,3.0,1.0,2.0,3.0
964868677,730,2020-07-28/964868677s730ms.jpg,964868677s730ms.jpg,119,36834,32559,35609,0.1015625,-1.3754883,-1.9711914,0.995987890625,-13.488932337195,-19.33078414281,430500730.0,-1036463241,-125.0,1.177,67.76,33461,32681,33010,5.487805000000001,-16.951220000000003,-42.682926,32706,32564,31286,1.08,0.44,-0.22,3.0,1.0,2.0,3.0
964868677,730,2020-07-28/964868677s730ms.jpg,964868677s730ms.jpg,99,31787,32194,32322,0.27978516,0.22949219,0.49316406,2.743755139314,2.2505495850635,4.836287328999,430500741.0,-1036463275,-125.39999999999998,1.129,67.76,33542,32532,33302,14.573171,-34.756096,-47.621952,32714,32581,31281,1.04,0.42,-0.22,3.0,1.0,2.0,3.0
964868677,730,2020-07-28/964868677s730ms.jpg,964868677s730ms.jpg,49,28815,32583,34166,0.08984375,-0.67089844,1.9443359,0.8810662109374999,-6.5792661866260005,19.067421653735,430500771.0,-1036463343,-126.60000000000002,1.094,67.76,33594,32645,33258,7.6829267,-32.073170000000005,-50.792683,32713,32551,31290,1.01,0.41,-0.23,3.0,1.0,2.0,3.0
964868677,730,2020-07-28/964868677s730ms.jpg,964868677s730ms.jpg,39,29517,32777,32875,-0.0048828125,-0.040527344,1.6015625,-0.047884033203125,-0.3974374780376,15.705962890625,430500783.0,-1036463351,-127.0,1.0759999999999998,67.76,33583,32761,33385,0.6097561,-39.817074,-50.121952,32718,32559,31287,0.99,0.4,-0.23,3.0,1.0,2.0,3.0
964868677,730,2020-07-28/964868677s730ms.jpg,964868677s730ms.jpg,229,30628,32171,32355,0.29101562,0.2133788999999999,1.059082,2.853888329873,2.092532189685,10.3860464953,430500635.0,-1036463082,-122.2,1.504,82.7,33040,32429,33177,20.853659,-27.134146,-17.012196,32696,32584,31279,1.49,0.19,-0.22,3.0,1.0,2.0,3.0
964868677,730,2020-07-28/964868677s730ms.jpg,964868677s730ms.jpg,473,29909,33576,32874,-0.39501953,-0.040039062,1.4101562,-3.8738182738745,-0.3926490673623,13.82890829873,430500267.0,-1036462763,-116.2,1.541,72.37,33189,32384,32757,23.59756,-1.5243902,-26.09756,32677,32629,31261,1.46,0.46,-0.23,3.0,1.0,2.0,3.0
964868677,730,2020-07-28/964868677s730ms.jpg,964868677s730ms.jpg,463,29916,33471,31695,-0.34375,0.53564453,1.4067383,-3.3710359375,5.2528784301245,13.795390149695,430500281.0,-1036462769,-116.39999999999998,1.548,73.26,33326,32624,32714,8.963414,1.097561,-34.451218,32682,32643,31255,1.48,0.44,-0.23,3.0,1.0,2.0,3.0
964868677,730,2020-07-28/964868677s730ms.jpg,964868677s730ms.jpg,453,30506,33400,32143,-0.30908203,0.31689453,1.1186523000000002,-3.0310592894995,3.1076737426245,10.970231577795,430500304.0,-1036462774,-116.60000000000002,1.55,74.3,33341,32603,32969,10.243902,-14.45122,-35.365852000000004,32684,32652,31254,1.49,0.41,-0.23,3.0,1.0,2.0,3.0
964868677,730,2020-07-28/964868677s730ms.jpg,964868677s730ms.jpg,423,30136,33733,33869,-0.4716797,-0.5258789,1.2993164,-4.625597730005,-5.157110314685,12.74194117406,430500377.0,-1036462799,-117.39999999999998,1.531,76.36,33455,32648,32927,7.5,-11.890244,-42.317074,32675,32616,31264,1.48,0.36,-0.23,3.0,1.0,2.0,3.0
964868661,714,2020-07-28/964868661s714ms.jpg,964868661s714ms.jpg,711,34232,33373,34324,-0.29589844,-0.7480469,-0.7006836,-2.901772436626,-7.335834131884999,-6.871358825939999,430485712.0,-1036503073,-133.39999999999998,5.507000000000001,43.1,32244,32756,32543,0.91463417,11.52439,31.524391,32743,32455,31298,3.76,4.02,-0.3,2.0,0.0,1.0,1.0
964868661,714,2020-07-28/964868661s714ms.jpg,964868661s714ms.jpg,649,31424,32849,33192,-0.040039062,-0.1953125,0.67041016,-0.3926490673623,-1.915361328125,6.574477795564,430485565.0,-1036503371,-133.39999999999998,5.728,43.32,32368,32742,32792,1.7682927,-3.6585367,23.963415,32745,32466,31296,3.93,4.16,-0.3,2.0,0.0,1.0,1.0
964868661,714,2020-07-28/964868661s714ms.jpg,964868661s714ms.jpg,701,34283,32812,35157,-0.021972656,-1.1547851999999998,-0.72558594,-0.2154781469624,-11.32457428158,-7.115567358500999,430485688.0,-1036503119,-133.39999999999998,5.537000000000001,43.19,32222,32755,32562,0.9756098,10.365853,32.865852000000004,32743,32458,31299,3.79,4.03,-0.3,2.0,0.0,1.0,1.0
964868661,714,2020-07-28/964868661s714ms.jpg,964868661s714ms.jpg,527,29916,32993,32419,-0.11035156,0.1821289,1.4067383,-1.082179125874,1.7860743771849998,13.795390149695,430485304.0,-1036504016,-133.0,6.16,39.23,32153,32691,32723,4.878049,0.5487805,37.073170000000005,32752,32503,31284,3.89,4.77,-0.3,2.0,0.0,1.0,1.0
964868661,714,2020-07-28/964868661s714ms.jpg,964868661s714ms.jpg,609,31744,32673,34014,0.045898438,-0.5966796999999999,0.51416016,0.4501099170127,-5.851428980004999,5.042188733063999,430485519.0,-1036503559,-133.2,5.96,41.9,32345,32595,32753,10.731708,-1.2804878,25.365854,32755,32501,31285,3.98,4.43,-0.3,2.0,0.0,1.0,1.0
964868661,714,2020-07-28/964868661s714ms.jpg,964868661s714ms.jpg,579,30224,32568,32952,0.09716797,-0.078125,1.2563476999999998,0.9528922730005,-0.7661445312499999,12.320562172205,430485458.0,-1036503713,-133.2,6.093999999999999,40.94,32245,32630,32667,8.597561,3.9634147,31.463415,32745,32468,31294,3.99,4.6,-0.3,2.0,0.0,1.0,1.0
964868661,714,2020-07-28/964868661s714ms.jpg,964868661s714ms.jpg,537,30266,32570,32563,0.096191406,0.111816406,1.2358398000000002,0.9433154516498998,1.0965443578999,12.119448374669998,430485323.0,-1036503958,-133.0,6.153,39.85,32181,32698,32788,4.4512196,-3.4146342000000005,35.365852000000004,32753,32505,31282,3.94,4.72,-0.3,2.0,0.0,1.0,1.0
964868661,714,2020-07-28/964868661s714ms.jpg,964868661s714ms.jpg,629,31367,33034,33258,-0.1303711,-0.22753906,0.6982421999999999,-1.278503747815,-2.231395922749,6.847416870630001,430485529.0,-1036503468,-133.2,5.794,42.88,32435,32639,32777,8.04878,-2.7439024,19.878048,32750,32486,31294,3.94,4.24,-0.3,2.0,0.0,1.0,1.0
964868661,714,2020-07-28/964868661s714ms.jpg,964868661s714ms.jpg,902,32935,32752,34403,0.0073242188,-0.7866211,-0.06738281,0.07182605029502,-7.714117810314999,-0.6607996336865,430485899.0,-1036502505,-134.0,4.571000000000001,38.4,32495,32629,32751,8.658536999999999,-1.1585366,16.219513,32744,32451,31304,2.83,3.58,-0.3,2.0,0.0,1.0,1.0
964868661,714,2020-07-28/964868661s714ms.jpg,964868661s714ms.jpg,861,29827,32921,33221,-0.07519531,-0.20947266,1.4501953,-0.7374140868115,-2.054225061189,14.221557738745,430485854.0,-1036502657,-134.0,4.703,38.59,32381,32733,32758,2.317073,-1.5853659,23.170732,32751,32472,31296,2.93,3.67,-0.3,2.0,0.0,1.0,1.0
964868661,714,2020-07-28/964868661s714ms.jpg,964868661s714ms.jpg,801,30813,32582,33253,0.09033203,-0.22509766,0.96875,0.8858546019994998,-2.207453967439,9.5001921875,430485828.0,-1036502854,-133.8,4.88,38.73,32175,32672,32680,6.0365853,3.1707318,35.73171,32748,32462,31299,3.05,3.8,-0.3,2.0,0.0,1.0,1.0
964868661,714,2020-07-28/964868661s714ms.jpg,964868661s714ms.jpg,791,31312,32087,32508,0.33203125,0.13867188,0.72509766,3.2561142578125,1.359906592002,7.110778967439,430485829.0,-1036502877,-133.60000000000002,4.97,38.89,32164,32571,32789,12.195122,-3.4756098,36.402440000000006,32749,32465,31297,3.12,3.86,-0.3,2.0,0.0,1.0,1.0
964868661,714,2020-07-28/964868661s714ms.jpg,964868661s714ms.jpg,1,31077,33104,32267,-0.16455078,0.25634766,0.83984375,-1.613691906687,2.513911779939,8.2360537109375,430483089.0,-1036506725,-131.60000000000002,5.972,22.75,32366,32769,32520,0.12195122,12.926829,24.085365,32741,32577,31250,2.3,5.5,-0.31,2.0,0.0,1.0,1.0
964868661,714,2020-07-28/964868661s714ms.jpg,964868661s714ms.jpg,21,29887,33300,32698,-0.2602539,0.045898438,1.4208983999999998,-2.5522189084349995,0.4501099170127,13.93425329436,430483196.0,-1036506645,-131.60000000000002,5.973,23.03,32383,32712,32502,3.597561,14.02439,23.04878,32738,32561,31254,2.33,5.49,-0.31,2.0,0.0,1.0,1.0
964868661,714,2020-07-28/964868661s714ms.jpg,964868661s714ms.jpg,234,30478,33211,32756,-0.21679688,0.017578125,1.1323242,-2.126051123252,0.17238251953125,11.10430711593,430483999.0,-1036505767,-132.2,5.839,32.01,32298,32775,32468,-0.24390244,16.09756,28.231707,32746,32555,31267,3.09,4.95,-0.3,2.0,0.0,1.0,1.0
964868661,714,2020-07-28/964868661s714ms.jpg,964868661s714ms.jpg,427,30816,33145,32087,-0.18457031,0.34423828,0.96728516,-1.8100164305615,3.375824328562,9.485827014314,430484907.0,-1036504681,-132.60000000000002,5.945,34.05,31829,32851,32397,-4.878049,20.426828,56.82927,32747,32505,31281,3.32,4.92,-0.31,2.0,0.0,1.0,1.0
964868661,714,2020-07-28/964868661s714ms.jpg,964868661s714ms.jpg,397,31935,32801,33833,-0.016601562,-0.5083008,0.42089844,-0.1628057079873,-4.984728040319999,4.127603686625998,430484785.0,-1036504849,-132.60000000000002,5.937,33.45,31905,32875,32453,-6.3414636,17.012196,52.19512,32747,32516,31278,3.27,4.95,-0.31,2.0,0.0,1.0,1.0
964868661,714,2020-07-28/964868661s714ms.jpg,964868661s714ms.jpg,377,29204,33524,32278,-0.3696289,0.25097656,1.7543945,-3.624821252185,2.461239282124,17.204732823425,430484696.0,-1036504950,-132.60000000000002,5.965,33.45,32001,32918,32486,-8.963414,15.0,46.341465,32751,32533,31274,3.28,4.97,-0.31,2.0,0.0,1.0,1.0
964868661,714,2020-07-28/964868661s714ms.jpg,964868661s714ms.jpg,344,30818,33186,33117,-0.20458984,-0.1586914,0.9663086,-2.006340954436,-1.5562310178100005,9.47625023219,430484582.0,-1036505076,-132.39999999999998,5.994,33.81,32075,32924,32423,-9.329268,18.841463,41.82927,32740,32501,31280,3.33,4.98,-0.31,2.0,0.0,1.0,1.0
964868679,698,2020-07-28/964868679s698ms.jpg,964868679s698ms.jpg,706,32959,32329,32266,0.21386719,0.25683594,-0.07910156,2.0973206788135,2.5187001710009995,-0.7757213133740001,430498061.0,-1036460351,-85.0,0.643,56.27,31565,32500,32314,16.524391,25.487804,72.92683000000001,32764,32425,31277,0.53,0.35,-0.22,2.0,0.0,1.0,1.0
964868679,698,2020-07-28/964868679s698ms.jpg,964868679s698ms.jpg,596,33452,31698,29516,0.52197266,1.5996093999999998,-0.31982422,5.118803186188999,15.686809522510002,-3.1364041870630004,430498441.0,-1036460221,-87.39999999999998,0.962,56.27,31637,32654,32296,7.134146,26.585365000000003,68.53658,32761,32444,31271,0.79,0.53,-0.22,2.0,0.0,1.0,1.0
964868679,698,2020-07-28/964868679s698ms.jpg,964868679s698ms.jpg,516,37579,32135,38001,0.30859375,-2.543457,-2.334961,3.0262708984375,-24.94279258905,-22.89814529065,430498701.0,-1036460188,-89.39999999999998,1.17,56.27,31650,32301,32282,28.658537,27.439024,67.743904,32757,32467,31273,0.97,0.64,-0.23,2.0,0.0,1.0,1.0
964868679,698,2020-07-28/964868679s698ms.jpg,964868679s698ms.jpg,956,28698,32459,32837,0.15039062,-0.021972656,2.0014648,1.474828173623,-0.2154781469624,19.62766478092,430497449.0,-1036460242,-80.60000000000002,1.069,56.27,31725,32612,32687,9.695122,2.7439024,63.170730000000006,32753,32385,31296,0.88,0.59,-0.13,2.0,0.0,1.0,1.0
964868679,698,2020-07-28/964868679s698ms.jpg,964868679s698ms.jpg,886,29483,33964,31981,-0.58447266,0.3959960999999999,1.6181641000000002,-5.731718811188999,3.883395154065,15.868768971264998,430497447.0,-1036460306,-80.80000000000003,1.061,56.27,32050,32567,32668,12.439024,3.902439,43.353657,32757,32398,31293,0.88,0.58,-0.14,2.0,0.0,1.0,1.0
964868679,698,2020-07-28/964868679s698ms.jpg,964868679s698ms.jpg,876,33314,33366,33277,-0.29248047,-0.2368163999999999,-0.2524414,-2.8682536011255,-2.32237554906,-2.47560445531,430497483.0,-1036460305,-81.0,1.054,56.27,31999,32272,32718,30.426828000000004,0.85365856,46.463413,32756,32391,31294,0.87,0.58,-0.14,2.0,0.0,1.0,1.0
964868679,698,2020-07-28/964868679s698ms.jpg,964868679s698ms.jpg,776,29625,33053,30538,-0.13964844,1.1005858999999998,1.5488281000000002,-1.3694833741260002,10.793060716235,15.188815086865,430497835.0,-1036460344,-83.19999999999997,0.8859999999999999,56.27,31517,32656,32343,7.012194999999999,23.719513,75.85365999999999,32768,32417,31273,0.73,0.49,-0.18,2.0,0.0,1.0,1.0
964868679,698,2020-07-28/964868679s698ms.jpg,964868679s698ms.jpg,506,36315,32249,35871,0.2529297,-1.503418,-1.7177734,2.480393042505,-14.743494129699998,-16.845602513110002,430498735.0,-1036460185,-89.60000000000002,1.192,56.27,31824,32184,31939,35.792683000000004,48.353657,57.134148,32758,32468,31271,0.99,0.66,-0.23,2.0,0.0,1.0,1.0
964868679,698,2020-07-28/964868679s698ms.jpg,964868679s698ms.jpg,166,28777,32220,32485,0.26708984,0.14990234,1.9628906000000004,2.619256579436,1.470039782561,19.24938110249,430500059.0,-1036460234,-100.2,1.354,56.27,32147,33047,32847,-16.829268,-7.012194999999999,37.439026,32764,32488,31252,1.12,0.75,-0.24,2.0,0.0,1.0,1.0
964868679,698,2020-07-28/964868679s698ms.jpg,964868679s698ms.jpg,496,35466,32542,33236,0.10986328,-0.21679688,-1.3032226999999998,1.077390734812,-2.126051123252,-12.780248890955,430499076.0,-1036460161,-92.0,1.453,56.27,32010,32251,31863,31.707317,52.987804,45.792683,32756,32464,31271,1.2,0.8,-0.23,2.0,0.0,1.0,1.0
964868679,698,2020-07-28/964868679s698ms.jpg,964868679s698ms.jpg,115,34579,31160,32766,0.78466797,0.0126953125,-0.8701171999999998,7.6949641480004995,0.124498486328125,-8.532934839380001,430500269.0,-1036460309,-101.60000000000002,1.26,56.27,31818,32135,32252,38.780487,29.268293,57.5,32765,32507,31253,1.04,0.69,-0.24,2.0,0.0,1.0,1.0
964868679,698,2020-07-28/964868679s698ms.jpg,964868679s698ms.jpg,85,31861,34210,32223,-0.70458984,0.27783203,0.45703125,-6.909665954436001,2.7246014769995,4.4819455078125,430500445.0,-1036460326,-102.8,1.188,56.27,32261,32540,32322,14.085366,25.0,30.487804,32758,32488,31255,0.98,0.65,-0.24,2.0,0.0,1.0,1.0
964868679,698,2020-07-28/964868679s698ms.jpg,964868679s698ms.jpg,216,26914,32559,32258,0.1015625,0.2607422,2.8725586,0.995987890625,2.55700749563,28.170176794690004,430499848.0,-1036460211,-99.0,1.381,56.27,32519,32593,33213,10.853659,-29.329268,14.756098,32760,32488,31260,1.14,0.76,-0.24,2.0,0.0,1.0,1.0
964868679,698,2020-07-28/964868679s698ms.jpg,964868679s698ms.jpg,125,33246,31835,32906,0.45507812,-0.055664062,-0.21923828,4.462791845498,-0.5458779736123001,-2.1499930785620003,430500222.0,-1036460300,-101.2,1.268,56.27,31815,32437,32499,20.365854,14.207317000000002,57.682926,32763,32493,31254,1.05,0.7,-0.24,2.0,0.0,1.0,1.0
964868679,698,2020-07-28/964868679s698ms.jpg,964868679s698ms.jpg,236,31781,31524,34635,0.6069336,-0.89990234,0.49609375,5.951985388439999,-8.825027282560999,4.8650177734375,430499778.0,-1036460221,-98.39999999999998,1.256,56.27,32656,32646,32920,7.621950999999999,-11.463414,6.402439,32756,32473,31266,1.04,0.69,-0.24,2.0,0.0,1.0,1.0
964868679,698,2020-07-28/964868679s698ms.jpg,964868679s698ms.jpg,476,27215,33271,31424,-0.24609375,0.66796875,2.725586,-2.4133552734375,6.5505357421875,26.7288679469,430499154.0,-1036460160,-92.39999999999998,1.443,56.27,32092,32561,32429,12.804878,18.475609,40.792683,32757,32477,31267,1.19,0.8,-0.23,2.0,0.0,1.0,1.0
964868679,698,2020-07-28/964868679s698ms.jpg,964868679s698ms.jpg,446,29069,33381,31803,-0.2998047,0.48291016,1.8203125,-2.9400797612550003,4.735730920564,17.851167578125,430499233.0,-1036460212,-93.2,1.268,56.27,32409,32698,32343,4.4512196,23.719513,21.463415,32763,32505,31256,1.05,0.7,-0.23,2.0,0.0,1.0,1.0
964868679,698,2020-07-28/964868679s698ms.jpg,964868679s698ms.jpg,436,31246,33200,32280,-0.21142578,0.25,0.7573241999999999,-2.073378625437,2.4516625,7.426813365929999,430499254.0,-1036460219,-93.2,1.261,56.27,32558,32875,32240,-6.3414636,30.0,12.378049,32758,32485,31260,1.04,0.7,-0.23,2.0,0.0,1.0,1.0
964868679,698,2020-07-28/964868679s698ms.jpg,964868679s698ms.jpg,266,30791,32075,33491,0.33789062,-0.3413085999999999,0.9794921999999998,3.313575048623,-3.3470939821900005,9.60553718313,430499676.0,-1036460226,-97.60000000000002,1.194,56.27,32997,32859,32892,-5.365854,-9.756098,-14.390244,32758,32476,31261,0.99,0.66,-0.23,2.0,0.0,1.0,1.0
964868679,698,2020-07-28/964868679s698ms.jpg,964868679s698ms.jpg,296,31791,32531,33151,0.115234375,-0.17529297,0.49121094,1.13006318359375,-1.7190368042504998,4.817133764751,430499573.0,-1036460211,-97.0,1.156,56.27,33223,32789,33038,-1.097561,-18.658537,-28.170732,32762,32501,31257,0.96,0.64,-0.23,2.0,0.0,1.0,1.0
964868681,700,2020-07-28/964868681s700ms.jpg,964868681s700ms.jpg,706,27562,33116,32443,-0.17041016,0.17041016,2.5561523,-1.671152795564,1.671152795564,25.067290952795,430500220.0,-1036458904,-81.60000000000002,1.32,56.27,32085,32865,32731,-5.731707,0.06097561,41.219513,32734,32435,31330,1.09,0.73,-0.16,3.0,1.0,2.0,3.0
964868681,700,2020-07-28/964868681s700ms.jpg,964868681s700ms.jpg,686,29084,33023,30718,-0.125,1.0126953,1.8129883,-1.22583125,9.931148363745,17.779341712195002,430500187.0,-1036458910,-81.60000000000002,1.331,56.27,32216,32965,32769,-11.829268,-2.2560976000000004,33.23171,32737,32441,31329,1.1,0.73,-0.16,3.0,1.0,2.0,3.0
964868681,700,2020-07-28/964868681s700ms.jpg,964868681s700ms.jpg,635,30015,32662,32487,0.05126953,0.14892578,1.3583983999999998,0.5027823363745,1.460463000437,13.321337669360002,430500108.0,-1036458904,-81.39999999999998,1.381,56.27,32381,32918,32668,-8.963414,3.902439,23.170732,32730,32427,31332,1.14,0.76,-0.15,3.0,1.0,2.0,3.0
964868681,700,2020-07-28/964868681s700ms.jpg,964868681s700ms.jpg,736,35893,32738,35816,0.014160156,-1.4765625,-1.5117188,0.1388636938374,-14.480131640624998,-14.824897170019998,430500284.0,-1036458894,-81.60000000000002,1.307,56.27,31927,32394,32677,22.987804,3.3536584,50.853657,32733,32429,31330,1.08,0.72,-0.16,3.0,1.0,2.0,3.0
964868681,700,2020-07-28/964868681s700ms.jpg,964868681s700ms.jpg,969,23240,33302,29074,-0.26123047,1.8154297,4.666504,-2.5617957886255,17.803283667505,45.7627714516,430500771.0,-1036458854,-82.0,1.177,56.27,33222,32990,33534,-13.353659,-48.902440000000006,-28.109756,32733,32472,31329,0.97,0.65,-0.16,3.0,1.0,2.0,3.0
964868681,700,2020-07-28/964868681s700ms.jpg,964868681s700ms.jpg,898,29547,32660,32682,0.052246094,0.053710938,1.5869141000000002,0.5123591577251,0.5267243701377,15.562311158765,430500615.0,-1036458855,-81.80000000000003,1.215,56.27,32614,32388,33270,23.353659,-32.80488,8.963414,32733,32451,31332,1.01,0.67,-0.16,3.0,1.0,2.0,3.0
964868681,700,2020-07-28/964868681s700ms.jpg,964868681s700ms.jpg,808,32965,32780,31672,-0.0063476562,0.546875,-0.08203125,-0.06224924267373,5.363011718749998,-0.8044517578125,430500444.0,-1036458889,-81.80000000000003,1.289,56.27,32254,32960,32851,-11.52439,-7.256098,30.914635,32733,32424,31330,1.07,0.71,-0.16,3.0,1.0,2.0,3.0
964868681,700,2020-07-28/964868681s700ms.jpg,964868681s700ms.jpg,798,30643,33537,33808,-0.37597656,-0.49609375,1.0517578,-3.687070532124,-4.8650177734375,10.31422062937,430500425.0,-1036458898,-81.80000000000003,1.289,56.27,32121,33287,33152,-31.463415,-25.609756,39.02439,32737,32438,31326,1.07,0.71,-0.16,3.0,1.0,2.0,3.0
964868681,700,2020-07-28/964868681s700ms.jpg,964868681s700ms.jpg,999,36246,32369,34934,0.19433594,-1.0458984,-1.684082,1.905784546001,-10.25675954436,-16.515202745299998,430500823.0,-1036458846,-82.0,1.161,56.27,33439,32758,33165,0.79268295,-26.40244,-41.341465,32723,32453,31341,0.96,0.64,-0.16,3.0,1.0,2.0,3.0
964868681,700,2020-07-28/964868681s700ms.jpg,964868681s700ms.jpg,206,27465,33108,32186,-0.1665039,0.29589844,2.6035156,-1.632845470935,2.901772436626,25.53176625874,430499311.0,-1036459113,-81.0,1.404,56.27,33242,33144,32623,-22.743902,6.6463413000000005,-29.329268,32733,32466,31323,1.16,0.77,-0.14,3.0,1.0,2.0,3.0
964868681,700,2020-07-28/964868681s700ms.jpg,964868681s700ms.jpg,196,27794,33744,30776,-0.47705078,0.984375,2.442871,-4.678270031687,9.65342109375,23.95638089215,430499294.0,-1036459105,-81.0,1.4,56.27,33412,33062,32612,-17.743902,7.3170733,-39.69512,32736,32474,31320,1.16,0.77,-0.14,3.0,1.0,2.0,3.0
964868681,700,2020-07-28/964868681s700ms.jpg,964868681s700ms.jpg,176,33219,34005,34394,-0.6044921999999999,-0.78222656,-0.20605469,-5.928043433130001,-7.671022094624,-2.0207062256885,430499249.0,-1036459106,-81.0,1.393,56.27,33580,32792,32668,-1.2804878,3.902439,-49.939026,32733,32470,31323,1.15,0.77,-0.14,3.0,1.0,2.0,3.0
964868681,700,2020-07-28/964868681s700ms.jpg,964868681s700ms.jpg,146,31195,32632,32660,0.06591797,0.064453125,0.78222656,0.6464344605005,0.63206923828125,7.671022094624,430499201.0,-1036459110,-81.0,1.4169999999999998,56.27,33597,32702,32861,4.207317,-7.865854,-50.97561,32730,32461,31329,1.17,0.78,-0.14,3.0,1.0,2.0,3.0
964868681,700,2020-07-28/964868681s700ms.jpg,964868681s700ms.jpg,136,30784,32690,33021,0.037597656,-0.111816406,0.98291016,0.3687070532124,-1.0965443578999,9.639055920564,430499176.0,-1036459103,-81.0,1.432,56.27,33576,32783,32839,-0.73170733,-6.52439,-49.69512,32729,32449,31329,1.19,0.79,-0.14,3.0,1.0,2.0,3.0
964868681,700,2020-07-28/964868681s700ms.jpg,964868681s700ms.jpg,86,31009,33001,32918,-0.11425781,-0.061523438,0.8730469000000001,-1.1204863524365,-0.6033388232626999,8.561665381885,430499085.0,-1036459096,-81.0,1.487,56.27,33593,32952,33194,-11.036586,-28.170732,-50.73171,32735,32472,31327,1.23,0.82,-0.14,3.0,1.0,2.0,3.0
